image,stimulus,trial_block.thisRepN,trial_block.thisTrialN,trial_block.thisN,trial_block.thisIndex,trials.thisRepN,trials.thisTrialN,trials.thisN,trials.thisIndex,welcome_text.started,instructions_text.started,spacebar_key.started,spacebar_key.keys,spacebar_key.rt,eye_text.started,eye_text.stopped,text.started,text.stopped,closedEyes_text.started,beep.started,trialImage.started,polygon.started,blank_text.started,trialBlockText.started,new_trialblock.started,new_trialblock.keys,new_trialblock.rt,goodbye_text.started,participant,session,age,gender,date,expName,psychopyVersion,frameRate,
,,,,,,,,,,36.258455699979095,38.260801799973706,38.260801799973706,space,45.25382569999783,,,,,,,,,,,,,,,1,006,21,Sentado,2023-06-17_12h42.29.068,face_recognition_ERP_protocol,2022.2.5,59.93525794027772,
Celebs/16_Emma_Stone_0010.jpg,non_target,0,0,0,0,0,0,0,95,,,,,,83.5435412999941,98.54334730000119,98.54334730000119,113.54527750000125,113.54527750000125,128.54277552999264,128.62589939997997,128.62589939997997,129.0766610999999,,,,,,1,006,21,Sentado,2023-06-17_12h42.29.068,face_recognition_ERP_protocol,2022.2.5,59.93525794027772,
Celebs/57_Jackie_Chan_0010.jpg,non_target,0,0,0,0,0,1,1,62,,,,,,,,,,,,129.57765859999927,129.57765859999927,130.06112829997437,,,,,,1,006,21,Sentado,2023-06-17_12h42.29.068,face_recognition_ERP_protocol,2022.2.5,59.93525794027772,
Celebs/17_Daniel_Radcliffe_0007.jpg,target,0,0,0,0,0,2,2,19,,,,,,,,,,,,130.56200589999207,130.56200589999207,131.06211609998718,,,,,,1,006,21,Sentado,2023-06-17_12h42.29.068,face_recognition_ERP_protocol,2022.2.5,59.93525794027772,
Celebs/43_Will_Smith_0006.jpg,non_target,0,0,0,0,0,3,3,61,,,,,,,,,,,,131.5632176999934,131.5632176999934,132.06332749998546,,,,,,1,006,21,Sentado,2023-06-17_12h42.29.068,face_recognition_ERP_protocol,2022.2.5,59.93525794027772,
Celebs/36_Jim_Parsons_0011.jpg,non_target,0,0,0,0,0,4,4,86,,,,,,,,,,,,132.56423829999403,132.56423829999403,133.0643498999998,,,,,,1,006,21,Sentado,2023-06-17_12h42.29.068,face_recognition_ERP_protocol,2022.2.5,59.93525794027772,
Celebs/23_Daniel_Radcliffe_0019.jpg,target,0,0,0,0,0,5,5,6,,,,,,,,,,,,133.56514890000108,133.56514890000108,134.06552169998758,,,,,,1,006,21,Sentado,2023-06-17_12h42.29.068,face_recognition_ERP_protocol,2022.2.5,59.93525794027772,
Celebs/18_Daniel_Radcliffe_0007.jpg,target,0,0,0,0,0,6,6,81,,,,,,,,,,,,134.5664390999882,134.5664390999882,135.06649649998872,,,,,,1,006,21,Sentado,2023-06-17_12h42.29.068,face_recognition_ERP_protocol,2022.2.5,59.93525794027772,
Celebs/50_Johnny_Depp_0008.jpg,non_target,0,0,0,0,0,7,7,84,,,,,,,,,,,,135.56694459999562,135.56694459999562,136.0676118999836,,,,,,1,006,21,Sentado,2023-06-17_12h42.29.068,face_recognition_ERP_protocol,2022.2.5,59.93525794027772,
Celebs/39_Neil_Patrick_Harris_0001.jpg,non_target,0,0,0,0,0,8,8,4,,,,,,,,,,,,136.56851469998946,136.56851469998946,137.06879979997757,,,,,,1,006,21,Sentado,2023-06-17_12h42.29.068,face_recognition_ERP_protocol,2022.2.5,59.93525794027772,
Celebs/24_Emma_Stone_0015.jpg,non_target,0,0,0,0,0,9,9,57,,,,,,,,,,,,137.56918609997956,137.56918609997956,138.06981119999546,,,,,,1,006,21,Sentado,2023-06-17_12h42.29.068,face_recognition_ERP_protocol,2022.2.5,59.93525794027772,
Celebs/52_Jackie_Chan_0002.jpg,non_target,0,0,0,0,0,10,10,68,,,,,,,,,,,,138.57041429998935,138.57041429998935,139.07092579998425,,,,,,1,006,21,Sentado,2023-06-17_12h42.29.068,face_recognition_ERP_protocol,2022.2.5,59.93525794027772,
Celebs/18_Daniel_Radcliffe_0008.jpg,target,0,0,0,0,0,11,11,28,,,,,,,,,,,,139.57150219997857,139.57150219997857,140.07205299998168,,,,,,1,006,21,Sentado,2023-06-17_12h42.29.068,face_recognition_ERP_protocol,2022.2.5,59.93525794027772,
Celebs/24_Scarlett_Johansson_0011.jpg,non_target,0,0,0,0,0,12,12,100,,,,,,,,,,,,140.57280339999124,140.57280339999124,141.07307689997833,,,,,,1,006,21,Sentado,2023-06-17_12h42.29.068,face_recognition_ERP_protocol,2022.2.5,59.93525794027772,
Celebs/32_Jim_Parsons_0010.jpg,non_target,0,0,0,0,0,13,13,98,,,,,,,,,,,,141.5746745999786,141.5746745999786,142.0741995999997,,,,,,1,006,21,Sentado,2023-06-17_12h42.29.068,face_recognition_ERP_protocol,2022.2.5,59.93525794027772,
Celebs/39_Neil_Patrick_Harris_0010.jpg,non_target,0,0,0,0,0,14,14,94,,,,,,,,,,,,142.57514380000066,142.57514380000066,143.07540179998614,,,,,,1,006,21,Sentado,2023-06-17_12h42.29.068,face_recognition_ERP_protocol,2022.2.5,59.93525794027772,
Celebs/20_Margot_Robbie_0006.jpg,non_target,0,0,0,0,0,15,15,35,,,,,,,,,,,,143.57582369999727,143.57582369999727,144.0764424999943,,,,,,1,006,21,Sentado,2023-06-17_12h42.29.068,face_recognition_ERP_protocol,2022.2.5,59.93525794027772,
Celebs/21_Daniel_Radcliffe_0002.jpg,target,0,0,0,0,0,16,16,60,,,,,,,,,,,,144.57678239999223,144.57678239999223,145.06090229999973,,,,,,1,006,21,Sentado,2023-06-17_12h42.29.068,face_recognition_ERP_protocol,2022.2.5,59.93525794027772,
Celebs/19_Margot_Robbie_0004.jpg,non_target,0,0,0,0,0,17,17,42,,,,,,,,,,,,145.56134279997787,145.56134279997787,146.06190719999722,,,,,,1,006,21,Sentado,2023-06-17_12h42.29.068,face_recognition_ERP_protocol,2022.2.5,59.93525794027772,
Celebs/18_Emma_Stone_0016.jpg,non_target,0,0,0,0,0,18,18,52,,,,,,,,,,,,146.5628246999986,146.5628246999986,147.06299379997654,,,,,,1,006,21,Sentado,2023-06-17_12h42.29.068,face_recognition_ERP_protocol,2022.2.5,59.93525794027772,
Celebs/49_Johnny_Depp_0013.jpg,non_target,0,0,0,0,0,19,19,33,,,,,,,,,,,,147.5637731999741,147.5637731999741,148.06420459999936,,,,,,1,006,21,Sentado,2023-06-17_12h42.29.068,face_recognition_ERP_protocol,2022.2.5,59.93525794027772,
Celebs/31_Neil_Patrick_Harris_0008.jpg,non_target,0,0,0,0,0,20,20,99,,,,,,,,,,,,148.56497489998583,148.56497489998583,149.06522119999863,,,,,,1,006,21,Sentado,2023-06-17_12h42.29.068,face_recognition_ERP_protocol,2022.2.5,59.93525794027772,
Celebs/17_Margot_Robbie_0012.jpg,non_target,0,0,0,0,0,21,21,67,,,,,,,,,,,,149.5662525999942,149.5662525999942,150.0662615999754,,,,,,1,006,21,Sentado,2023-06-17_12h42.29.068,face_recognition_ERP_protocol,2022.2.5,59.93525794027772,
Celebs/27_Scarlett_Johansson_0012.jpg,non_target,0,0,0,0,0,22,22,78,,,,,,,,,,,,150.56654539998272,150.56654539998272,151.06734819998383,,,,,,1,006,21,Sentado,2023-06-17_12h42.29.068,face_recognition_ERP_protocol,2022.2.5,59.93525794027772,
Celebs/51_Jackie_Chan_0006.jpg,non_target,0,0,0,0,0,23,23,97,,,,,,,,,,,,151.56840509999893,151.56840509999893,152.06849239999428,,,,,,1,006,21,Sentado,2023-06-17_12h42.29.068,face_recognition_ERP_protocol,2022.2.5,59.93525794027772,
Celebs/57_Jackie_Chan_0008.jpg,non_target,0,0,0,0,0,24,24,72,,,,,,,,,,,,152.5690136999765,152.5690136999765,153.06961099998443,,,,,,1,006,21,Sentado,2023-06-17_12h42.29.068,face_recognition_ERP_protocol,2022.2.5,59.93525794027772,
Celebs/21_Margot_Robbie_0003.jpg,non_target,0,0,0,0,0,25,25,27,,,,,,,,,,,,153.570074999996,153.570074999996,154.07067849999294,,,,,,1,006,21,Sentado,2023-06-17_12h42.29.068,face_recognition_ERP_protocol,2022.2.5,59.93525794027772,
Celebs/37_Will_Smith_0015.jpg,non_target,0,0,0,0,0,26,26,113,,,,,,,,,,,,154.57127739998396,154.57127739998396,155.0718521999952,,,,,,1,006,21,Sentado,2023-06-17_12h42.29.068,face_recognition_ERP_protocol,2022.2.5,59.93525794027772,
Celebs/39_Jim_Parsons_0010.jpg,non_target,0,0,0,0,0,27,27,0,,,,,,,,,,,,155.57261779997498,155.57261779997498,156.07288929997594,,,,,,1,006,21,Sentado,2023-06-17_12h42.29.068,face_recognition_ERP_protocol,2022.2.5,59.93525794027772,
Celebs/50_Jackie_Chan_0012.jpg,non_target,0,0,0,0,0,28,28,43,,,,,,,,,,,,156.57327789999545,156.57327789999545,157.07396359997801,,,,,,1,006,21,Sentado,2023-06-17_12h42.29.068,face_recognition_ERP_protocol,2022.2.5,59.93525794027772,
Celebs/20_Emma_Stone_0005.jpg,non_target,0,0,0,0,0,29,29,63,,,,,,,,,,,,157.5751576999901,157.5751576999901,158.07507749999058,,,,,,1,006,21,Sentado,2023-06-17_12h42.29.068,face_recognition_ERP_protocol,2022.2.5,59.93525794027772,
Celebs/21_Scarlett_Johansson_0007.jpg,non_target,0,0,0,0,0,30,30,118,,,,,,,,,,,,158.57559649998439,158.57559649998439,159.07611379999435,,,,,,1,006,21,Sentado,2023-06-17_12h42.29.068,face_recognition_ERP_protocol,2022.2.5,59.93525794027772,
Celebs/18_Emma_Watson_0004.jpg,non_target,0,0,0,0,0,31,31,75,,,,,,,,,,,,159.57658759999322,159.57658759999322,160.07721930000116,,,,,,1,006,21,Sentado,2023-06-17_12h42.29.068,face_recognition_ERP_protocol,2022.2.5,59.93525794027772,
Celebs/44_Will_Smith_0015.jpg,non_target,0,0,0,0,0,32,32,101,,,,,,,,,,,,160.56110949997674,160.56110949997674,161.06165689998306,,,,,,1,006,21,Sentado,2023-06-17_12h42.29.068,face_recognition_ERP_protocol,2022.2.5,59.93525794027772,
Celebs/32_Jim_Parsons_0016.jpg,non_target,0,0,0,0,0,33,33,102,,,,,,,,,,,,161.56191099999705,161.56191099999705,162.06268750000163,,,,,,1,006,21,Sentado,2023-06-17_12h42.29.068,face_recognition_ERP_protocol,2022.2.5,59.93525794027772,
Celebs/15_Margot_Robbie_0005.jpg,non_target,0,0,0,0,0,34,34,80,,,,,,,,,,,,162.56326199998148,162.56326199998148,163.06379739998374,,,,,,1,006,21,Sentado,2023-06-17_12h42.29.068,face_recognition_ERP_protocol,2022.2.5,59.93525794027772,
Celebs/25_Scarlett_Johansson_0010.jpg,non_target,0,0,0,0,0,35,35,32,,,,,,,,,,,,163.564486999996,163.564486999996,164.0649112999963,,,,,,1,006,21,Sentado,2023-06-17_12h42.29.068,face_recognition_ERP_protocol,2022.2.5,59.93525794027772,
Celebs/39_Jim_Parsons_0004.jpg,non_target,0,0,0,0,0,36,36,88,,,,,,,,,,,,164.56587849999778,164.56587849999778,165.06600839999737,,,,,,1,006,21,Sentado,2023-06-17_12h42.29.068,face_recognition_ERP_protocol,2022.2.5,59.93525794027772,
Celebs/50_Johnny_Depp_0018.jpg,non_target,0,0,0,0,0,37,37,24,,,,,,,,,,,,165.56639529997483,165.56639529997483,166.06706969998777,,,,,,1,006,21,Sentado,2023-06-17_12h42.29.068,face_recognition_ERP_protocol,2022.2.5,59.93525794027772,
Celebs/38_Will_Smith_0013.jpg,non_target,0,0,0,0,0,38,38,13,,,,,,,,,,,,166.56751939997775,166.56751939997775,167.0681370999955,,,,,,1,006,21,Sentado,2023-06-17_12h42.29.068,face_recognition_ERP_protocol,2022.2.5,59.93525794027772,
Celebs/29_Scarlett_Johansson_0016.jpg,non_target,0,0,0,0,0,39,39,2,,,,,,,,,,,,167.56908219997422,167.56908219997422,168.06932459998643,,,,,,1,006,21,Sentado,2023-06-17_12h42.29.068,face_recognition_ERP_protocol,2022.2.5,59.93525794027772,
Celebs/17_Margot_Robbie_0006.jpg,non_target,0,0,0,0,0,40,40,17,,,,,,,,,,,,168.56959069997538,168.56959069997538,169.07037919998402,,,,,,1,006,21,Sentado,2023-06-17_12h42.29.068,face_recognition_ERP_protocol,2022.2.5,59.93525794027772,
Celebs/16_Emma_Stone_0014.jpg,non_target,0,0,0,0,0,41,41,40,,,,,,,,,,,,169.57087820000015,169.57087820000015,170.07146399997873,,,,,,1,006,21,Sentado,2023-06-17_12h42.29.068,face_recognition_ERP_protocol,2022.2.5,59.93525794027772,
Celebs/21_Emma_Stone_0002.jpg,non_target,0,0,0,0,0,42,42,103,,,,,,,,,,,,170.5720924999914,170.5720924999914,171.07256629999029,,,,,,1,006,21,Sentado,2023-06-17_12h42.29.068,face_recognition_ERP_protocol,2022.2.5,59.93525794027772,
Celebs/48_Johnny_Depp_0003.jpg,non_target,0,0,0,0,0,43,43,55,,,,,,,,,,,,171.57310969999526,171.57310969999526,172.0736418000015,,,,,,1,006,21,Sentado,2023-06-17_12h42.29.068,face_recognition_ERP_protocol,2022.2.5,59.93525794027772,
Celebs/23_Daniel_Radcliffe_0002.jpg,target,0,0,0,0,0,44,44,77,,,,,,,,,,,,172.57437299998128,172.57437299998128,173.0747310000006,,,,,,1,006,21,Sentado,2023-06-17_12h42.29.068,face_recognition_ERP_protocol,2022.2.5,59.93525794027772,
Celebs/22_Scarlett_Johansson_0005.jpg,non_target,0,0,0,0,0,45,45,44,,,,,,,,,,,,173.5751961999922,173.5751961999922,174.07590209998307,,,,,,1,006,21,Sentado,2023-06-17_12h42.29.068,face_recognition_ERP_protocol,2022.2.5,59.93525794027772,
Celebs/54_Jackie_Chan_0001.jpg,non_target,0,0,0,0,0,46,46,7,,,,,,,,,,,,174.57674809999298,174.57674809999298,175.07697449999978,,,,,,1,006,21,Sentado,2023-06-17_12h42.29.068,face_recognition_ERP_protocol,2022.2.5,59.93525794027772,
Celebs/20_Margot_Robbie_0004.jpg,non_target,0,0,0,0,0,47,47,116,,,,,,,,,,,,175.5608456999762,175.5608456999762,176.06134069999098,,,,,,1,006,21,Sentado,2023-06-17_12h42.29.068,face_recognition_ERP_protocol,2022.2.5,59.93525794027772,
Celebs/19_Emma_Stone_0006.jpg,non_target,0,0,0,0,0,48,48,66,,,,,,,,,,,,176.5618695000012,176.5618695000012,177.0624422999972,,,,,,1,006,21,Sentado,2023-06-17_12h42.29.068,face_recognition_ERP_protocol,2022.2.5,59.93525794027772,
Celebs/48_Johnny_Depp_0005.jpg,non_target,0,0,0,0,0,49,49,54,,,,,,,,,,,,177.56313579998096,177.56313579998096,178.06353249997483,,,,,,1,006,21,Sentado,2023-06-17_12h42.29.068,face_recognition_ERP_protocol,2022.2.5,59.93525794027772,
Celebs/50_Johnny_Depp_0004.jpg,non_target,0,0,0,0,0,50,50,39,,,,,,,,,,,,178.56436969997594,178.56436969997594,179.06464909997885,,,,,,1,006,21,Sentado,2023-06-17_12h42.29.068,face_recognition_ERP_protocol,2022.2.5,59.93525794027772,
Celebs/35_Neil_Patrick_Harris_0009.jpg,non_target,0,0,0,0,0,51,51,87,,,,,,,,,,,,179.5653257999802,179.5653257999802,180.06576889997814,,,,,,1,006,21,Sentado,2023-06-17_12h42.29.068,face_recognition_ERP_protocol,2022.2.5,59.93525794027772,
Celebs/14_Emma_Watson_0015.jpg,non_target,0,0,0,0,0,52,52,56,,,,,,,,,,,,180.5665412999806,180.5665412999806,181.06686089999857,,,,,,1,006,21,Sentado,2023-06-17_12h42.29.068,face_recognition_ERP_protocol,2022.2.5,59.93525794027772,
Celebs/34_Neil_Patrick_Harris_0007.jpg,non_target,0,0,0,0,0,53,53,117,,,,,,,,,,,,181.5678346999921,181.5678346999921,182.06790080000064,,,,,,1,006,21,Sentado,2023-06-17_12h42.29.068,face_recognition_ERP_protocol,2022.2.5,59.93525794027772,
Celebs/55_Jackie_Chan_0008.jpg,non_target,0,0,0,0,0,54,54,92,,,,,,,,,,,,182.5687792999961,182.5687792999961,183.0690190999885,,,,,,1,006,21,Sentado,2023-06-17_12h42.29.068,face_recognition_ERP_protocol,2022.2.5,59.93525794027772,
Celebs/33_Neil_Patrick_Harris_0011.jpg,non_target,0,0,0,0,0,55,55,112,,,,,,,,,,,,183.56949249998434,183.56949249998434,184.07015409998712,,,,,,1,006,21,Sentado,2023-06-17_12h42.29.068,face_recognition_ERP_protocol,2022.2.5,59.93525794027772,
Celebs/17_Margot_Robbie_0014.jpg,non_target,0,0,0,0,0,56,56,114,,,,,,,,,,,,184.5706596999953,184.5706596999953,185.07121739999275,,,,,,1,006,21,Sentado,2023-06-17_12h42.29.068,face_recognition_ERP_protocol,2022.2.5,59.93525794027772,
Celebs/21_Emma_Watson_0004.jpg,non_target,0,0,0,0,0,57,57,21,,,,,,,,,,,,185.5719900999975,185.5719900999975,186.0723385999736,,,,,,1,006,21,Sentado,2023-06-17_12h42.29.068,face_recognition_ERP_protocol,2022.2.5,59.93525794027772,
Celebs/54_Jackie_Chan_0014.jpg,non_target,0,0,0,0,0,58,58,111,,,,,,,,,,,,186.57270489999792,186.57270489999792,187.07343649998074,,,,,,1,006,21,Sentado,2023-06-17_12h42.29.068,face_recognition_ERP_protocol,2022.2.5,59.93525794027772,
Celebs/21_Daniel_Radcliffe_0012.jpg,target,0,0,0,0,0,59,59,8,,,,,,,,,,,,187.5739168,187.5739168,188.0745969999989,,,,,,1,006,21,Sentado,2023-06-17_12h42.29.068,face_recognition_ERP_protocol,2022.2.5,59.93525794027772,
Celebs/17_Emma_Watson_0006.jpg,non_target,0,0,0,0,0,60,60,90,,,,,,,,,,,,188.57518109999364,188.57518109999364,189.07564060000004,,,,,,1,006,21,Sentado,2023-06-17_12h42.29.068,face_recognition_ERP_protocol,2022.2.5,59.93525794027772,
Celebs/16_Margot_Robbie_0009.jpg,non_target,0,0,0,0,0,61,61,107,,,,,,,,,,,,189.59282549997442,189.59282549997442,190.07670489998418,,,,,,1,006,21,Sentado,2023-06-17_12h42.29.068,face_recognition_ERP_protocol,2022.2.5,59.93525794027772,
Celebs/39_Jim_Parsons_0001.jpg,non_target,0,0,0,0,0,62,62,49,,,,,,,,,,,,190.57769219999318,190.57769219999318,191.0611206999747,,,,,,1,006,21,Sentado,2023-06-17_12h42.29.068,face_recognition_ERP_protocol,2022.2.5,59.93525794027772,
Celebs/22_Emma_Stone_0013.jpg,non_target,0,0,0,0,0,63,63,1,,,,,,,,,,,,191.56151519998093,191.56151519998093,192.06217619997915,,,,,,1,006,21,Sentado,2023-06-17_12h42.29.068,face_recognition_ERP_protocol,2022.2.5,59.93525794027772,
Celebs/16_Emma_Stone_0008.jpg,non_target,0,0,0,0,0,64,64,48,,,,,,,,,,,,192.56261110000196,192.56261110000196,193.06323279999197,,,,,,1,006,21,Sentado,2023-06-17_12h42.29.068,face_recognition_ERP_protocol,2022.2.5,59.93525794027772,
Celebs/47_Johnny_Depp_0004.jpg,non_target,0,0,0,0,0,65,65,76,,,,,,,,,,,,193.56414769997355,193.56414769997355,194.06442299997434,,,,,,1,006,21,Sentado,2023-06-17_12h42.29.068,face_recognition_ERP_protocol,2022.2.5,59.93525794027772,
Celebs/22_Emma_Watson_0003.jpg,non_target,0,0,0,0,0,66,66,91,,,,,,,,,,,,194.56625219999114,194.56625219999114,195.06559819998802,,,,,,1,006,21,Sentado,2023-06-17_12h42.29.068,face_recognition_ERP_protocol,2022.2.5,59.93525794027772,
Celebs/32_Jim_Parsons_0018.jpg,non_target,0,0,0,0,0,67,67,46,,,,,,,,,,,,195.5660980999819,195.5660980999819,196.06652749999193,,,,,,1,006,21,Sentado,2023-06-17_12h42.29.068,face_recognition_ERP_protocol,2022.2.5,59.93525794027772,
Celebs/20_Emma_Watson_0007.jpg,non_target,0,0,0,0,0,68,68,96,,,,,,,,,,,,196.5673523999867,196.5673523999867,197.06770639997558,,,,,,1,006,21,Sentado,2023-06-17_12h42.29.068,face_recognition_ERP_protocol,2022.2.5,59.93525794027772,
Celebs/18_Daniel_Radcliffe_0002.jpg,target,0,0,0,0,0,69,69,119,,,,,,,,,,,,197.56829139997717,197.56829139997717,198.0687340000004,,,,,,1,006,21,Sentado,2023-06-17_12h42.29.068,face_recognition_ERP_protocol,2022.2.5,59.93525794027772,
Celebs/43_Will_Smith_0007.jpg,non_target,0,0,0,0,0,70,70,74,,,,,,,,,,,,198.56962939997902,198.56962939997902,199.06986189997406,,,,,,1,006,21,Sentado,2023-06-17_12h42.29.068,face_recognition_ERP_protocol,2022.2.5,59.93525794027772,
Celebs/44_Will_Smith_0007.jpg,non_target,0,0,0,0,0,71,71,65,,,,,,,,,,,,199.5705274999782,199.5705274999782,200.07092399999965,,,,,,1,006,21,Sentado,2023-06-17_12h42.29.068,face_recognition_ERP_protocol,2022.2.5,59.93525794027772,
Celebs/43_Will_Smith_0010.jpg,non_target,0,0,0,0,0,72,72,22,,,,,,,,,,,,200.57200359998387,200.57200359998387,201.07202309998684,,,,,,1,006,21,Sentado,2023-06-17_12h42.29.068,face_recognition_ERP_protocol,2022.2.5,59.93525794027772,
Celebs/22_Emma_Watson_0001.jpg,non_target,0,0,0,0,0,73,73,58,,,,,,,,,,,,201.572749199986,201.572749199986,202.0731121999852,,,,,,1,006,21,Sentado,2023-06-17_12h42.29.068,face_recognition_ERP_protocol,2022.2.5,59.93525794027772,
Celebs/47_Johnny_Depp_0003.jpg,non_target,0,0,0,0,0,74,74,9,,,,,,,,,,,,202.57400519997464,202.57400519997464,203.0742163999821,,,,,,1,006,21,Sentado,2023-06-17_12h42.29.068,face_recognition_ERP_protocol,2022.2.5,59.93525794027772,
Celebs/29_Scarlett_Johansson_0010.jpg,non_target,0,0,0,0,0,75,75,85,,,,,,,,,,,,203.5745542999939,203.5745542999939,204.07530599998427,,,,,,1,006,21,Sentado,2023-06-17_12h42.29.068,face_recognition_ERP_protocol,2022.2.5,59.93525794027772,
Celebs/16_Emma_Stone_0012.jpg,non_target,0,0,0,0,0,76,76,70,,,,,,,,,,,,204.5759612999973,204.5759612999973,205.07642869997653,,,,,,1,006,21,Sentado,2023-06-17_12h42.29.068,face_recognition_ERP_protocol,2022.2.5,59.93525794027772,
Celebs/28_Scarlett_Johansson_0005.jpg,non_target,0,0,0,0,0,77,77,50,,,,,,,,,,,,205.57674349998706,205.57674349998706,206.06078629998956,,,,,,1,006,21,Sentado,2023-06-17_12h42.29.068,face_recognition_ERP_protocol,2022.2.5,59.93525794027772,
Celebs/42_Will_Smith_0012.jpg,non_target,0,0,0,0,0,78,78,64,,,,,,,,,,,,206.5616787999752,206.5616787999752,207.06192109998665,,,,,,1,006,21,Sentado,2023-06-17_12h42.29.068,face_recognition_ERP_protocol,2022.2.5,59.93525794027772,
Celebs/45_Johnny_Depp_0003.jpg,non_target,0,0,0,0,0,79,79,108,,,,,,,,,,,,207.56295619998127,207.56295619998127,208.0630251999828,,,,,,1,006,21,Sentado,2023-06-17_12h42.29.068,face_recognition_ERP_protocol,2022.2.5,59.93525794027772,
Celebs/34_Neil_Patrick_Harris_0004.jpg,non_target,0,0,0,0,0,80,80,104,,,,,,,,,,,,208.56368279998424,208.56368279998424,209.0640727999853,,,,,,1,006,21,Sentado,2023-06-17_12h42.29.068,face_recognition_ERP_protocol,2022.2.5,59.93525794027772,
Celebs/55_Jackie_Chan_0015.jpg,non_target,0,0,0,0,0,81,81,30,,,,,,,,,,,,209.5645811999857,209.5645811999857,210.06521499998053,,,,,,1,006,21,Sentado,2023-06-17_12h42.29.068,face_recognition_ERP_protocol,2022.2.5,59.93525794027772,
Celebs/14_Emma_Watson_0005.jpg,non_target,0,0,0,0,0,82,82,26,,,,,,,,,,,,210.56572049998795,210.56572049998795,211.06634689998464,,,,,,1,006,21,Sentado,2023-06-17_12h42.29.068,face_recognition_ERP_protocol,2022.2.5,59.93525794027772,
Celebs/23_Daniel_Radcliffe_0010.jpg,target,0,0,0,0,0,83,83,15,,,,,,,,,,,,211.56657049999922,211.56657049999922,212.0673500999983,,,,,,1,006,21,Sentado,2023-06-17_12h42.29.068,face_recognition_ERP_protocol,2022.2.5,59.93525794027772,
Celebs/37_Neil_Patrick_Harris_0010.jpg,non_target,0,0,0,0,0,84,84,93,,,,,,,,,,,,212.56781209999463,212.56781209999463,213.06844379997347,,,,,,1,006,21,Sentado,2023-06-17_12h42.29.068,face_recognition_ERP_protocol,2022.2.5,59.93525794027772,
Celebs/33_Jim_Parsons_0011.jpg,non_target,0,0,0,0,0,85,85,34,,,,,,,,,,,,213.56898569999612,213.56898569999612,214.06966839998495,,,,,,1,006,21,Sentado,2023-06-17_12h42.29.068,face_recognition_ERP_protocol,2022.2.5,59.93525794027772,
Celebs/24_Daniel_Radcliffe_0017.jpg,target,0,0,0,0,0,86,86,71,,,,,,,,,,,,214.57004199997755,214.57004199997755,215.07069219998084,,,,,,1,006,21,Sentado,2023-06-17_12h42.29.068,face_recognition_ERP_protocol,2022.2.5,59.93525794027772,
Celebs/14_Emma_Watson_0013.jpg,non_target,0,0,0,0,0,87,87,20,,,,,,,,,,,,215.57128599999123,215.57128599999123,216.07179029998952,,,,,,1,006,21,Sentado,2023-06-17_12h42.29.068,face_recognition_ERP_protocol,2022.2.5,59.93525794027772,
Celebs/24_Scarlett_Johansson_0001.jpg,non_target,0,0,0,0,0,88,88,10,,,,,,,,,,,,216.57257140000002,216.57257140000002,217.07284739997704,,,,,,1,006,21,Sentado,2023-06-17_12h42.29.068,face_recognition_ERP_protocol,2022.2.5,59.93525794027772,
Celebs/37_Neil_Patrick_Harris_0014.jpg,non_target,0,0,0,0,0,89,89,37,,,,,,,,,,,,217.57309449999593,217.57309449999593,218.07392309998977,,,,,,1,006,21,Sentado,2023-06-17_12h42.29.068,face_recognition_ERP_protocol,2022.2.5,59.93525794027772,
Celebs/21_Daniel_Radcliffe_0008.jpg,target,0,0,0,0,0,90,90,16,,,,,,,,,,,,218.5748779999849,218.5748779999849,219.07510139999795,,,,,,1,006,21,Sentado,2023-06-17_12h42.29.068,face_recognition_ERP_protocol,2022.2.5,59.93525794027772,
Celebs/47_Johnny_Depp_0009.jpg,non_target,0,0,0,0,0,91,91,23,,,,,,,,,,,,219.5756308999844,219.5756308999844,220.0761874000018,,,,,,1,006,21,Sentado,2023-06-17_12h42.29.068,face_recognition_ERP_protocol,2022.2.5,59.93525794027772,
Celebs/21_Emma_Stone_0003.jpg,non_target,0,0,0,0,0,92,92,25,,,,,,,,,,,,220.576802399999,220.576802399999,221.07724189999863,,,,,,1,006,21,Sentado,2023-06-17_12h42.29.068,face_recognition_ERP_protocol,2022.2.5,59.93525794027772,
Celebs/26_Scarlett_Johansson_0003.jpg,non_target,0,0,0,0,0,93,93,105,,,,,,,,,,,,221.5614187999745,221.5614187999745,222.06160019998788,,,,,,1,006,21,Sentado,2023-06-17_12h42.29.068,face_recognition_ERP_protocol,2022.2.5,59.93525794027772,
Celebs/38_Jim_Parsons_0003.jpg,non_target,0,0,0,0,0,94,94,53,,,,,,,,,,,,222.56238560000202,222.56238560000202,223.0627423999831,,,,,,1,006,21,Sentado,2023-06-17_12h42.29.068,face_recognition_ERP_protocol,2022.2.5,59.93525794027772,
Celebs/22_Emma_Watson_0010.jpg,non_target,0,0,0,0,0,95,95,11,,,,,,,,,,,,223.56383849997655,223.56383849997655,224.0638512999867,,,,,,1,006,21,Sentado,2023-06-17_12h42.29.068,face_recognition_ERP_protocol,2022.2.5,59.93525794027772,
Celebs/14_Emma_Watson_0004.jpg,non_target,0,0,0,0,0,96,96,14,,,,,,,,,,,,224.56502109998837,224.56502109998837,225.06506039999658,,,,,,1,006,21,Sentado,2023-06-17_12h42.29.068,face_recognition_ERP_protocol,2022.2.5,59.93525794027772,
Celebs/20_Scarlett_Johansson_0011.jpg,non_target,0,0,0,0,0,97,97,109,,,,,,,,,,,,225.5663112999755,225.5663112999755,226.06606509999256,,,,,,1,006,21,Sentado,2023-06-17_12h42.29.068,face_recognition_ERP_protocol,2022.2.5,59.93525794027772,
Celebs/44_Will_Smith_0006.jpg,non_target,0,0,0,0,0,98,98,41,,,,,,,,,,,,226.56753419997403,226.56753419997403,227.06715389998863,,,,,,1,006,21,Sentado,2023-06-17_12h42.29.068,face_recognition_ERP_protocol,2022.2.5,59.93525794027772,
Celebs/39_Jim_Parsons_0008.jpg,non_target,0,0,0,0,0,99,99,89,,,,,,,,,,,,227.5675471999857,227.5675471999857,228.0682809999853,,,,,,1,006,21,Sentado,2023-06-17_12h42.29.068,face_recognition_ERP_protocol,2022.2.5,59.93525794027772,
Celebs/14_Emma_Watson_0008.jpg,non_target,0,0,0,0,0,100,100,36,,,,,,,,,,,,228.57000869998592,228.57000869998592,229.06932989999768,,,,,,1,006,21,Sentado,2023-06-17_12h42.29.068,face_recognition_ERP_protocol,2022.2.5,59.93525794027772,
Celebs/23_Emma_Stone_0014.jpg,non_target,0,0,0,0,0,101,101,12,,,,,,,,,,,,229.5707566999772,229.5707566999772,230.07045909998124,,,,,,1,006,21,Sentado,2023-06-17_12h42.29.068,face_recognition_ERP_protocol,2022.2.5,59.93525794027772,
Celebs/19_Margot_Robbie_0001.jpg,non_target,0,0,0,0,0,102,102,51,,,,,,,,,,,,230.57147179997992,230.57147179997992,231.07145749998745,,,,,,1,006,21,Sentado,2023-06-17_12h42.29.068,face_recognition_ERP_protocol,2022.2.5,59.93525794027772,
Celebs/58_Jackie_Chan_0005.jpg,non_target,0,0,0,0,0,103,103,3,,,,,,,,,,,,231.5728937999811,231.5728937999811,232.07257549997303,,,,,,1,006,21,Sentado,2023-06-17_12h42.29.068,face_recognition_ERP_protocol,2022.2.5,59.93525794027772,
Celebs/45_Will_Smith_0010.jpg,non_target,0,0,0,0,0,104,104,69,,,,,,,,,,,,232.5736779999861,232.5736779999861,233.07369409999228,,,,,,1,006,21,Sentado,2023-06-17_12h42.29.068,face_recognition_ERP_protocol,2022.2.5,59.93525794027772,
Celebs/36_Neil_Patrick_Harris_0010.jpg,non_target,0,0,0,0,0,105,105,79,,,,,,,,,,,,233.57467269999324,233.57467269999324,234.07476739998674,,,,,,1,006,21,Sentado,2023-06-17_12h42.29.068,face_recognition_ERP_protocol,2022.2.5,59.93525794027772,
Celebs/15_Margot_Robbie_0012.jpg,non_target,0,0,0,0,0,106,106,82,,,,,,,,,,,,234.57585499997367,234.57585499997367,235.07590159997926,,,,,,1,006,21,Sentado,2023-06-17_12h42.29.068,face_recognition_ERP_protocol,2022.2.5,59.93525794027772,
Celebs/50_Johnny_Depp_0010.jpg,non_target,0,0,0,0,0,107,107,115,,,,,,,,,,,,235.57638889999362,235.57638889999362,236.07701819998329,,,,,,1,006,21,Sentado,2023-06-17_12h42.29.068,face_recognition_ERP_protocol,2022.2.5,59.93525794027772,
Celebs/40_Jim_Parsons_0004.jpg,non_target,0,0,0,0,0,108,108,73,,,,,,,,,,,,236.56142359998194,236.56142359998194,237.0613827999914,,,,,,1,006,21,Sentado,2023-06-17_12h42.29.068,face_recognition_ERP_protocol,2022.2.5,59.93525794027772,
Celebs/48_Johnny_Depp_0001.jpg,non_target,0,0,0,0,0,109,109,106,,,,,,,,,,,,237.56213099998422,237.56213099998422,238.06247289999737,,,,,,1,006,21,Sentado,2023-06-17_12h42.29.068,face_recognition_ERP_protocol,2022.2.5,59.93525794027772,
Celebs/36_Neil_Patrick_Harris_0007.jpg,non_target,0,0,0,0,0,110,110,5,,,,,,,,,,,,238.56292369999574,238.56292369999574,239.06355089999852,,,,,,1,006,21,Sentado,2023-06-17_12h42.29.068,face_recognition_ERP_protocol,2022.2.5,59.93525794027772,
Celebs/40_Will_Smith_0012.jpg,non_target,0,0,0,0,0,111,111,110,,,,,,,,,,,,239.56461859997944,239.56461859997944,240.06456709999475,,,,,,1,006,21,Sentado,2023-06-17_12h42.29.068,face_recognition_ERP_protocol,2022.2.5,59.93525794027772,
Celebs/50_Jackie_Chan_0014.jpg,non_target,0,0,0,0,0,112,112,38,,,,,,,,,,,,240.56518309999956,240.56518309999956,241.06567089998862,,,,,,1,006,21,Sentado,2023-06-17_12h42.29.068,face_recognition_ERP_protocol,2022.2.5,59.93525794027772,
Celebs/40_Jim_Parsons_0015.jpg,non_target,0,0,0,0,0,113,113,45,,,,,,,,,,,,241.56674499998917,241.56674499998917,242.06685379997361,,,,,,1,006,21,Sentado,2023-06-17_12h42.29.068,face_recognition_ERP_protocol,2022.2.5,59.93525794027772,
Celebs/45_Will_Smith_0014.jpg,non_target,0,0,0,0,0,114,114,59,,,,,,,,,,,,242.56798609998077,242.56798609998077,243.06790249998448,,,,,,1,006,21,Sentado,2023-06-17_12h42.29.068,face_recognition_ERP_protocol,2022.2.5,59.93525794027772,
Celebs/22_Margot_Robbie_0010.jpg,non_target,0,0,0,0,0,115,115,18,,,,,,,,,,,,243.56841349997558,243.56841349997558,244.068989899999,,,,,,1,006,21,Sentado,2023-06-17_12h42.29.068,face_recognition_ERP_protocol,2022.2.5,59.93525794027772,
Celebs/21_Daniel_Radcliffe_0009.jpg,target,0,0,0,0,0,116,116,83,,,,,,,,,,,,244.56990999999107,244.56990999999107,245.07016730000032,,,,,,1,006,21,Sentado,2023-06-17_12h42.29.068,face_recognition_ERP_protocol,2022.2.5,59.93525794027772,
Celebs/26_Scarlett_Johansson_0008.jpg,non_target,0,0,0,0,0,117,117,47,,,,,,,,,,,,245.5711491999973,245.5711491999973,246.07124189997558,,,,,,1,006,21,Sentado,2023-06-17_12h42.29.068,face_recognition_ERP_protocol,2022.2.5,59.93525794027772,
Celebs/38_Neil_Patrick_Harris_0006.jpg,non_target,0,0,0,0,0,118,118,31,,,,,,,,,,,,246.57163319998654,246.57163319998654,247.07227149998653,,,,,,1,006,21,Sentado,2023-06-17_12h42.29.068,face_recognition_ERP_protocol,2022.2.5,59.93525794027772,
Celebs/55_Jackie_Chan_0003.jpg,non_target,0,0,0,0,0,119,119,29,,,,,,,,,,,,247.57329599998775,247.57329599998775,248.07335919997422,,,,,,1,006,21,Sentado,2023-06-17_12h42.29.068,face_recognition_ERP_protocol,2022.2.5,59.93525794027772,
Celebs/22_Scarlett_Johansson_0005.jpg,non_target,1,0,1,0,0,0,0,44,,,,,,,,,,,,259.454883599974,259.454883599974,259.9068928999768,248.59046619999572,248.59046619999572,space,10.795428100012941,,1,006,21,Sentado,2023-06-17_12h42.29.068,face_recognition_ERP_protocol,2022.2.5,59.93525794027772,
Celebs/43_Will_Smith_0010.jpg,non_target,1,0,1,0,0,1,1,22,,,,,,,,,,,,260.4203006999742,260.4203006999742,260.92082829997526,,,,,,1,006,21,Sentado,2023-06-17_12h42.29.068,face_recognition_ERP_protocol,2022.2.5,59.93525794027772,
Celebs/22_Emma_Watson_0010.jpg,non_target,1,0,1,0,0,2,2,11,,,,,,,,,,,,261.4214037999918,261.4214037999918,261.92183549999027,,,,,,1,006,21,Sentado,2023-06-17_12h42.29.068,face_recognition_ERP_protocol,2022.2.5,59.93525794027772,
Celebs/25_Scarlett_Johansson_0010.jpg,non_target,1,0,1,0,0,3,3,32,,,,,,,,,,,,262.4227546999755,262.4227546999755,262.92302930000005,,,,,,1,006,21,Sentado,2023-06-17_12h42.29.068,face_recognition_ERP_protocol,2022.2.5,59.93525794027772,
Celebs/44_Will_Smith_0015.jpg,non_target,1,0,1,0,0,4,4,101,,,,,,,,,,,,263.40675329999067,263.40675329999067,263.9073733999976,,,,,,1,006,21,Sentado,2023-06-17_12h42.29.068,face_recognition_ERP_protocol,2022.2.5,59.93525794027772,
Celebs/32_Jim_Parsons_0010.jpg,non_target,1,0,1,0,0,5,5,98,,,,,,,,,,,,264.4083019999962,264.4083019999962,264.9084884999902,,,,,,1,006,21,Sentado,2023-06-17_12h42.29.068,face_recognition_ERP_protocol,2022.2.5,59.93525794027772,
Celebs/24_Scarlett_Johansson_0011.jpg,non_target,1,0,1,0,0,6,6,100,,,,,,,,,,,,265.40919359997497,265.40919359997497,265.90951679999125,,,,,,1,006,21,Sentado,2023-06-17_12h42.29.068,face_recognition_ERP_protocol,2022.2.5,59.93525794027772,
Celebs/29_Scarlett_Johansson_0010.jpg,non_target,1,0,1,0,0,7,7,85,,,,,,,,,,,,266.41042729999754,266.41042729999754,266.91062650000094,,,,,,1,006,21,Sentado,2023-06-17_12h42.29.068,face_recognition_ERP_protocol,2022.2.5,59.93525794027772,
Celebs/20_Emma_Watson_0007.jpg,non_target,1,0,1,0,0,8,8,96,,,,,,,,,,,,267.4112400999875,267.4112400999875,267.9117714999884,,,,,,1,006,21,Sentado,2023-06-17_12h42.29.068,face_recognition_ERP_protocol,2022.2.5,59.93525794027772,
Celebs/23_Daniel_Radcliffe_0010.jpg,target,1,0,1,0,0,9,9,15,,,,,,,,,,,,268.412385499978,268.412385499978,268.91285799999605,,,,,,1,006,21,Sentado,2023-06-17_12h42.29.068,face_recognition_ERP_protocol,2022.2.5,59.93525794027772,
Celebs/32_Jim_Parsons_0018.jpg,non_target,1,0,1,0,0,10,10,46,,,,,,,,,,,,269.413192899985,269.413192899985,269.9139113999845,,,,,,1,006,21,Sentado,2023-06-17_12h42.29.068,face_recognition_ERP_protocol,2022.2.5,59.93525794027772,
Celebs/21_Daniel_Radcliffe_0009.jpg,target,1,0,1,0,0,11,11,83,,,,,,,,,,,,270.4143882999779,270.4143882999779,270.9150649999792,,,,,,1,006,21,Sentado,2023-06-17_12h42.29.068,face_recognition_ERP_protocol,2022.2.5,59.93525794027772,
Celebs/50_Johnny_Depp_0004.jpg,non_target,1,0,1,0,0,12,12,39,,,,,,,,,,,,271.4153899999801,271.4153899999801,271.9161963999795,,,,,,1,006,21,Sentado,2023-06-17_12h42.29.068,face_recognition_ERP_protocol,2022.2.5,59.93525794027772,
Celebs/45_Will_Smith_0014.jpg,non_target,1,0,1,0,0,13,13,59,,,,,,,,,,,,272.4165695999982,272.4165695999982,272.9172781999805,,,,,,1,006,21,Sentado,2023-06-17_12h42.29.068,face_recognition_ERP_protocol,2022.2.5,59.93525794027772,
Celebs/15_Margot_Robbie_0005.jpg,non_target,1,0,1,0,0,14,14,80,,,,,,,,,,,,273.41775100000086,273.41775100000086,273.91831399998046,,,,,,1,006,21,Sentado,2023-06-17_12h42.29.068,face_recognition_ERP_protocol,2022.2.5,59.93525794027772,
Celebs/33_Neil_Patrick_Harris_0011.jpg,non_target,1,0,1,0,0,15,15,112,,,,,,,,,,,,274.4188431999937,274.4188431999937,274.91948989999946,,,,,,1,006,21,Sentado,2023-06-17_12h42.29.068,face_recognition_ERP_protocol,2022.2.5,59.93525794027772,
Celebs/22_Emma_Stone_0013.jpg,non_target,1,0,1,0,0,16,16,1,,,,,,,,,,,,275.41990159999114,275.41990159999114,275.9206160999893,,,,,,1,006,21,Sentado,2023-06-17_12h42.29.068,face_recognition_ERP_protocol,2022.2.5,59.93525794027772,
Celebs/49_Johnny_Depp_0013.jpg,non_target,1,0,1,0,0,17,17,33,,,,,,,,,,,,276.42123009997886,276.42123009997886,276.92166789999465,,,,,,1,006,21,Sentado,2023-06-17_12h42.29.068,face_recognition_ERP_protocol,2022.2.5,59.93525794027772,
Celebs/57_Jackie_Chan_0010.jpg,non_target,1,0,1,0,0,18,18,62,,,,,,,,,,,,277.42220859997906,277.42220859997906,277.92291259998456,,,,,,1,006,21,Sentado,2023-06-17_12h42.29.068,face_recognition_ERP_protocol,2022.2.5,59.93525794027772,
Celebs/29_Scarlett_Johansson_0016.jpg,non_target,1,0,1,0,0,19,19,2,,,,,,,,,,,,278.4063960999774,278.4063960999774,278.90710109999054,,,,,,1,006,21,Sentado,2023-06-17_12h42.29.068,face_recognition_ERP_protocol,2022.2.5,59.93525794027772,
Celebs/14_Emma_Watson_0015.jpg,non_target,1,0,1,0,0,20,20,56,,,,,,,,,,,,279.4077068999759,279.4077068999759,279.9081484999915,,,,,,1,006,21,Sentado,2023-06-17_12h42.29.068,face_recognition_ERP_protocol,2022.2.5,59.93525794027772,
Celebs/21_Daniel_Radcliffe_0002.jpg,target,1,0,1,0,0,21,21,60,,,,,,,,,,,,280.40870179998456,280.40870179998456,280.9092773000011,,,,,,1,006,21,Sentado,2023-06-17_12h42.29.068,face_recognition_ERP_protocol,2022.2.5,59.93525794027772,
Celebs/18_Emma_Stone_0016.jpg,non_target,1,0,1,0,0,22,22,52,,,,,,,,,,,,281.4099119999737,281.4099119999737,281.9103279999981,,,,,,1,006,21,Sentado,2023-06-17_12h42.29.068,face_recognition_ERP_protocol,2022.2.5,59.93525794027772,
Celebs/23_Daniel_Radcliffe_0019.jpg,target,1,0,1,0,0,23,23,6,,,,,,,,,,,,282.41100319998804,282.41100319998804,282.91146549998666,,,,,,1,006,21,Sentado,2023-06-17_12h42.29.068,face_recognition_ERP_protocol,2022.2.5,59.93525794027772,
Celebs/24_Daniel_Radcliffe_0017.jpg,target,1,0,1,0,0,24,24,71,,,,,,,,,,,,283.4118221999961,283.4118221999961,283.9125468999846,,,,,,1,006,21,Sentado,2023-06-17_12h42.29.068,face_recognition_ERP_protocol,2022.2.5,59.93525794027772,
Celebs/19_Margot_Robbie_0001.jpg,non_target,1,0,1,0,0,25,25,51,,,,,,,,,,,,284.41301189997466,284.41301189997466,284.9136386999744,,,,,,1,006,21,Sentado,2023-06-17_12h42.29.068,face_recognition_ERP_protocol,2022.2.5,59.93525794027772,
Celebs/17_Margot_Robbie_0012.jpg,non_target,1,0,1,0,0,26,26,67,,,,,,,,,,,,285.4139582999924,285.4139582999924,285.91476709998096,,,,,,1,006,21,Sentado,2023-06-17_12h42.29.068,face_recognition_ERP_protocol,2022.2.5,59.93525794027772,
Celebs/22_Emma_Watson_0003.jpg,non_target,1,0,1,0,0,27,27,91,,,,,,,,,,,,286.4151263999811,286.4151263999811,286.91584029997466,,,,,,1,006,21,Sentado,2023-06-17_12h42.29.068,face_recognition_ERP_protocol,2022.2.5,59.93525794027772,
Celebs/32_Jim_Parsons_0016.jpg,non_target,1,0,1,0,0,28,28,102,,,,,,,,,,,,287.41637069999706,287.41637069999706,287.91693839998334,,,,,,1,006,21,Sentado,2023-06-17_12h42.29.068,face_recognition_ERP_protocol,2022.2.5,59.93525794027772,
Celebs/39_Neil_Patrick_Harris_0001.jpg,non_target,1,0,1,0,0,29,29,4,,,,,,,,,,,,288.41786459999275,288.41786459999275,288.9180499999784,,,,,,1,006,21,Sentado,2023-06-17_12h42.29.068,face_recognition_ERP_protocol,2022.2.5,59.93525794027772,
Celebs/38_Neil_Patrick_Harris_0006.jpg,non_target,1,0,1,0,0,30,30,31,,,,,,,,,,,,289.41854249997414,289.41854249997414,289.9191660999786,,,,,,1,006,21,Sentado,2023-06-17_12h42.29.068,face_recognition_ERP_protocol,2022.2.5,59.93525794027772,
Celebs/26_Scarlett_Johansson_0008.jpg,non_target,1,0,1,0,0,31,31,47,,,,,,,,,,,,290.41960789999575,290.41960789999575,290.92033779999474,,,,,,1,006,21,Sentado,2023-06-17_12h42.29.068,face_recognition_ERP_protocol,2022.2.5,59.93525794027772,
Celebs/47_Johnny_Depp_0009.jpg,non_target,1,0,1,0,0,32,32,23,,,,,,,,,,,,291.42053879998275,291.42053879998275,291.921283499978,,,,,,1,006,21,Sentado,2023-06-17_12h42.29.068,face_recognition_ERP_protocol,2022.2.5,59.93525794027772,
Celebs/14_Emma_Watson_0004.jpg,non_target,1,0,1,0,0,33,33,14,,,,,,,,,,,,292.421797899995,292.421797899995,292.92242909999914,,,,,,1,006,21,Sentado,2023-06-17_12h42.29.068,face_recognition_ERP_protocol,2022.2.5,59.93525794027772,
Celebs/20_Scarlett_Johansson_0011.jpg,non_target,1,0,1,0,0,34,34,109,,,,,,,,,,,,293.42275040000095,293.42275040000095,293.9068580000021,,,,,,1,006,21,Sentado,2023-06-17_12h42.29.068,face_recognition_ERP_protocol,2022.2.5,59.93525794027772,
Celebs/45_Will_Smith_0010.jpg,non_target,1,0,1,0,0,35,35,69,,,,,,,,,,,,294.40715149999596,294.40715149999596,294.9079311999958,,,,,,1,006,21,Sentado,2023-06-17_12h42.29.068,face_recognition_ERP_protocol,2022.2.5,59.93525794027772,
Celebs/54_Jackie_Chan_0014.jpg,non_target,1,0,1,0,0,36,36,111,,,,,,,,,,,,295.4082827999955,295.4082827999955,295.90904719999526,,,,,,1,006,21,Sentado,2023-06-17_12h42.29.068,face_recognition_ERP_protocol,2022.2.5,59.93525794027772,
Celebs/14_Emma_Watson_0005.jpg,non_target,1,0,1,0,0,37,37,26,,,,,,,,,,,,296.40949219997856,296.40949219997856,296.9101952999772,,,,,,1,006,21,Sentado,2023-06-17_12h42.29.068,face_recognition_ERP_protocol,2022.2.5,59.93525794027772,
Celebs/39_Jim_Parsons_0008.jpg,non_target,1,0,1,0,0,38,38,89,,,,,,,,,,,,297.4108161999902,297.4108161999902,297.9112045999791,,,,,,1,006,21,Sentado,2023-06-17_12h42.29.068,face_recognition_ERP_protocol,2022.2.5,59.93525794027772,
Celebs/21_Emma_Stone_0003.jpg,non_target,1,0,1,0,0,39,39,25,,,,,,,,,,,,298.41160829999717,298.41160829999717,298.91229939999175,,,,,,1,006,21,Sentado,2023-06-17_12h42.29.068,face_recognition_ERP_protocol,2022.2.5,59.93525794027772,
Celebs/50_Johnny_Depp_0010.jpg,non_target,1,0,1,0,0,40,40,115,,,,,,,,,,,,299.4127144999802,299.4127144999802,299.9133853999956,,,,,,1,006,21,Sentado,2023-06-17_12h42.29.068,face_recognition_ERP_protocol,2022.2.5,59.93525794027772,
Celebs/47_Johnny_Depp_0003.jpg,non_target,1,0,1,0,0,41,41,9,,,,,,,,,,,,300.4137752999959,300.4137752999959,300.9145079999871,,,,,,1,006,21,Sentado,2023-06-17_12h42.29.068,face_recognition_ERP_protocol,2022.2.5,59.93525794027772,
Celebs/17_Margot_Robbie_0006.jpg,non_target,1,0,1,0,0,42,42,17,,,,,,,,,,,,301.4149940999923,301.4149940999923,301.9155500999768,,,,,,1,006,21,Sentado,2023-06-17_12h42.29.068,face_recognition_ERP_protocol,2022.2.5,59.93525794027772,
Celebs/44_Will_Smith_0006.jpg,non_target,1,0,1,0,0,43,43,41,,,,,,,,,,,,302.4161291999917,302.4161291999917,302.9166460999986,,,,,,1,006,21,Sentado,2023-06-17_12h42.29.068,face_recognition_ERP_protocol,2022.2.5,59.93525794027772,
Celebs/17_Margot_Robbie_0014.jpg,non_target,1,0,1,0,0,44,44,114,,,,,,,,,,,,303.41794329998083,303.41794329998083,303.91786689998116,,,,,,1,006,21,Sentado,2023-06-17_12h42.29.068,face_recognition_ERP_protocol,2022.2.5,59.93525794027772,
Celebs/27_Scarlett_Johansson_0012.jpg,non_target,1,0,1,0,0,45,45,78,,,,,,,,,,,,304.41839189999155,304.41839189999155,304.9188331999758,,,,,,1,006,21,Sentado,2023-06-17_12h42.29.068,face_recognition_ERP_protocol,2022.2.5,59.93525794027772,
Celebs/39_Jim_Parsons_0004.jpg,non_target,1,0,1,0,0,46,46,88,,,,,,,,,,,,305.4197952999966,305.4197952999966,305.9199233999825,,,,,,1,006,21,Sentado,2023-06-17_12h42.29.068,face_recognition_ERP_protocol,2022.2.5,59.93525794027772,
Celebs/34_Neil_Patrick_Harris_0007.jpg,non_target,1,0,1,0,0,47,47,117,,,,,,,,,,,,306.4205652999808,306.4205652999808,306.9210234999773,,,,,,1,006,21,Sentado,2023-06-17_12h42.29.068,face_recognition_ERP_protocol,2022.2.5,59.93525794027772,
Celebs/55_Jackie_Chan_0003.jpg,non_target,1,0,1,0,0,48,48,29,,,,,,,,,,,,307.42159359998186,307.42159359998186,307.9221624999773,,,,,,1,006,21,Sentado,2023-06-17_12h42.29.068,face_recognition_ERP_protocol,2022.2.5,59.93525794027772,
Celebs/38_Will_Smith_0013.jpg,non_target,1,0,1,0,0,49,49,13,,,,,,,,,,,,308.42265259998385,308.42265259998385,308.90671199999633,,,,,,1,006,21,Sentado,2023-06-17_12h42.29.068,face_recognition_ERP_protocol,2022.2.5,59.93525794027772,
Celebs/57_Jackie_Chan_0008.jpg,non_target,1,0,1,0,0,50,50,72,,,,,,,,,,,,309.40689749998273,309.40689749998273,309.90767389998655,,,,,,1,006,21,Sentado,2023-06-17_12h42.29.068,face_recognition_ERP_protocol,2022.2.5,59.93525794027772,
Celebs/50_Jackie_Chan_0014.jpg,non_target,1,0,1,0,0,51,51,38,,,,,,,,,,,,310.40849979998893,310.40849979998893,310.90878689999226,,,,,,1,006,21,Sentado,2023-06-17_12h42.29.068,face_recognition_ERP_protocol,2022.2.5,59.93525794027772,
Celebs/20_Emma_Stone_0005.jpg,non_target,1,0,1,0,0,52,52,63,,,,,,,,,,,,311.40938669999014,311.40938669999014,311.9098263999913,,,,,,1,006,21,Sentado,2023-06-17_12h42.29.068,face_recognition_ERP_protocol,2022.2.5,59.93525794027772,
Celebs/36_Neil_Patrick_Harris_0007.jpg,non_target,1,0,1,0,0,53,53,5,,,,,,,,,,,,312.4102731999883,312.4102731999883,312.9109318999981,,,,,,1,006,21,Sentado,2023-06-17_12h42.29.068,face_recognition_ERP_protocol,2022.2.5,59.93525794027772,
Celebs/18_Daniel_Radcliffe_0007.jpg,target,1,0,1,0,0,54,54,81,,,,,,,,,,,,313.41149939998286,313.41149939998286,313.91203729997505,,,,,,1,006,21,Sentado,2023-06-17_12h42.29.068,face_recognition_ERP_protocol,2022.2.5,59.93525794027772,
Celebs/44_Will_Smith_0007.jpg,non_target,1,0,1,0,0,55,55,65,,,,,,,,,,,,314.4127581999928,314.4127581999928,314.9130828999914,,,,,,1,006,21,Sentado,2023-06-17_12h42.29.068,face_recognition_ERP_protocol,2022.2.5,59.93525794027772,
Celebs/23_Emma_Stone_0014.jpg,non_target,1,0,1,0,0,56,56,12,,,,,,,,,,,,315.41371799999615,315.41371799999615,315.91417669999646,,,,,,1,006,21,Sentado,2023-06-17_12h42.29.068,face_recognition_ERP_protocol,2022.2.5,59.93525794027772,
Celebs/16_Emma_Stone_0008.jpg,non_target,1,0,1,0,0,57,57,48,,,,,,,,,,,,316.41482969999197,316.41482969999197,316.91532959998585,,,,,,1,006,21,Sentado,2023-06-17_12h42.29.068,face_recognition_ERP_protocol,2022.2.5,59.93525794027772,
Celebs/35_Neil_Patrick_Harris_0009.jpg,non_target,1,0,1,0,0,58,58,87,,,,,,,,,,,,317.41561239998555,317.41561239998555,317.916424199997,,,,,,1,006,21,Sentado,2023-06-17_12h42.29.068,face_recognition_ERP_protocol,2022.2.5,59.93525794027772,
Celebs/14_Emma_Watson_0013.jpg,non_target,1,0,1,0,0,59,59,20,,,,,,,,,,,,318.41702399999485,318.41702399999485,318.91752849999466,,,,,,1,006,21,Sentado,2023-06-17_12h42.29.068,face_recognition_ERP_protocol,2022.2.5,59.93525794027772,
Celebs/21_Daniel_Radcliffe_0012.jpg,target,1,0,1,0,0,60,60,8,,,,,,,,,,,,319.41781980000087,319.41781980000087,319.91861179997795,,,,,,1,006,21,Sentado,2023-06-17_12h42.29.068,face_recognition_ERP_protocol,2022.2.5,59.93525794027772,
Celebs/21_Emma_Watson_0004.jpg,non_target,1,0,1,0,0,61,61,21,,,,,,,,,,,,320.41888839998865,320.41888839998865,320.9196403999813,,,,,,1,006,21,Sentado,2023-06-17_12h42.29.068,face_recognition_ERP_protocol,2022.2.5,59.93525794027772,
Celebs/58_Jackie_Chan_0005.jpg,non_target,1,0,1,0,0,62,62,3,,,,,,,,,,,,321.4201499999908,321.4201499999908,321.92074370000046,,,,,,1,006,21,Sentado,2023-06-17_12h42.29.068,face_recognition_ERP_protocol,2022.2.5,59.93525794027772,
Celebs/48_Johnny_Depp_0001.jpg,non_target,1,0,1,0,0,63,63,106,,,,,,,,,,,,322.421489499975,322.421489499975,322.92182339998544,,,,,,1,006,21,Sentado,2023-06-17_12h42.29.068,face_recognition_ERP_protocol,2022.2.5,59.93525794027772,
Celebs/40_Will_Smith_0012.jpg,non_target,1,0,1,0,0,64,64,110,,,,,,,,,,,,323.42246089997934,323.42246089997934,323.922954699985,,,,,,1,006,21,Sentado,2023-06-17_12h42.29.068,face_recognition_ERP_protocol,2022.2.5,59.93525794027772,
Celebs/16_Margot_Robbie_0009.jpg,non_target,1,0,1,0,0,65,65,107,,,,,,,,,,,,324.40668679997907,324.40668679997907,324.90738569997484,,,,,,1,006,21,Sentado,2023-06-17_12h42.29.068,face_recognition_ERP_protocol,2022.2.5,59.93525794027772,
Celebs/37_Neil_Patrick_Harris_0010.jpg,non_target,1,0,1,0,0,66,66,93,,,,,,,,,,,,325.4081997999747,325.4081997999747,325.9084493999835,,,,,,1,006,21,Sentado,2023-06-17_12h42.29.068,face_recognition_ERP_protocol,2022.2.5,59.93525794027772,
Celebs/16_Emma_Stone_0012.jpg,non_target,1,0,1,0,0,67,67,70,,,,,,,,,,,,326.40917529998114,326.40917529998114,326.90957659998094,,,,,,1,006,21,Sentado,2023-06-17_12h42.29.068,face_recognition_ERP_protocol,2022.2.5,59.93525794027772,
Celebs/21_Margot_Robbie_0003.jpg,non_target,1,0,1,0,0,68,68,27,,,,,,,,,,,,327.41044929999043,327.41044929999043,327.91075969999656,,,,,,1,006,21,Sentado,2023-06-17_12h42.29.068,face_recognition_ERP_protocol,2022.2.5,59.93525794027772,
Celebs/34_Neil_Patrick_Harris_0004.jpg,non_target,1,0,1,0,0,69,69,104,,,,,,,,,,,,328.4111522999883,328.4111522999883,328.9117915999959,,,,,,1,006,21,Sentado,2023-06-17_12h42.29.068,face_recognition_ERP_protocol,2022.2.5,59.93525794027772,
Celebs/19_Emma_Stone_0006.jpg,non_target,1,0,1,0,0,70,70,66,,,,,,,,,,,,329.4126182999753,329.4126182999753,329.9128128000011,,,,,,1,006,21,Sentado,2023-06-17_12h42.29.068,face_recognition_ERP_protocol,2022.2.5,59.93525794027772,
Celebs/23_Daniel_Radcliffe_0002.jpg,target,1,0,1,0,0,71,71,77,,,,,,,,,,,,330.41340469999705,330.41340469999705,330.9139157999889,,,,,,1,006,21,Sentado,2023-06-17_12h42.29.068,face_recognition_ERP_protocol,2022.2.5,59.93525794027772,
Celebs/20_Margot_Robbie_0006.jpg,non_target,1,0,1,0,0,72,72,35,,,,,,,,,,,,331.41460489999736,331.41460489999736,331.9150623999885,,,,,,1,006,21,Sentado,2023-06-17_12h42.29.068,face_recognition_ERP_protocol,2022.2.5,59.93525794027772,
Celebs/19_Margot_Robbie_0004.jpg,non_target,1,0,1,0,0,73,73,42,,,,,,,,,,,,332.41549829998985,332.41549829998985,332.9162196999823,,,,,,1,006,21,Sentado,2023-06-17_12h42.29.068,face_recognition_ERP_protocol,2022.2.5,59.93525794027772,
Celebs/55_Jackie_Chan_0015.jpg,non_target,1,0,1,0,0,74,74,30,,,,,,,,,,,,333.41670449997764,333.41670449997764,333.91726249997737,,,,,,1,006,21,Sentado,2023-06-17_12h42.29.068,face_recognition_ERP_protocol,2022.2.5,59.93525794027772,
Celebs/48_Johnny_Depp_0003.jpg,non_target,1,0,1,0,0,75,75,55,,,,,,,,,,,,334.4178077999968,334.4178077999968,334.9183383999916,,,,,,1,006,21,Sentado,2023-06-17_12h42.29.068,face_recognition_ERP_protocol,2022.2.5,59.93525794027772,
Celebs/21_Daniel_Radcliffe_0008.jpg,target,1,0,1,0,0,76,76,16,,,,,,,,,,,,335.4189115999907,335.4189115999907,335.91943039998296,,,,,,1,006,21,Sentado,2023-06-17_12h42.29.068,face_recognition_ERP_protocol,2022.2.5,59.93525794027772,
Celebs/24_Scarlett_Johansson_0001.jpg,non_target,1,0,1,0,0,77,77,10,,,,,,,,,,,,336.4200673000014,336.4200673000014,336.9205590999918,,,,,,1,006,21,Sentado,2023-06-17_12h42.29.068,face_recognition_ERP_protocol,2022.2.5,59.93525794027772,
Celebs/21_Scarlett_Johansson_0007.jpg,non_target,1,0,1,0,0,78,78,118,,,,,,,,,,,,337.4209274999739,337.4209274999739,337.9216806999757,,,,,,1,006,21,Sentado,2023-06-17_12h42.29.068,face_recognition_ERP_protocol,2022.2.5,59.93525794027772,
Celebs/17_Daniel_Radcliffe_0007.jpg,target,1,0,1,0,0,79,79,19,,,,,,,,,,,,338.42210409999825,338.42210409999825,338.92267999998876,,,,,,1,006,21,Sentado,2023-06-17_12h42.29.068,face_recognition_ERP_protocol,2022.2.5,59.93525794027772,
Celebs/38_Jim_Parsons_0003.jpg,non_target,1,0,1,0,0,80,80,53,,,,,,,,,,,,339.4066711999767,339.4066711999767,339.90705399998114,,,,,,1,006,21,Sentado,2023-06-17_12h42.29.068,face_recognition_ERP_protocol,2022.2.5,59.93525794027772,
Celebs/18_Daniel_Radcliffe_0008.jpg,target,1,0,1,0,0,81,81,28,,,,,,,,,,,,340.40748349999194,340.40748349999194,340.90818020000006,,,,,,1,006,21,Sentado,2023-06-17_12h42.29.068,face_recognition_ERP_protocol,2022.2.5,59.93525794027772,
Celebs/39_Jim_Parsons_0010.jpg,non_target,1,0,1,0,0,82,82,0,,,,,,,,,,,,341.4086796999909,341.4086796999909,341.90935199998785,,,,,,1,006,21,Sentado,2023-06-17_12h42.29.068,face_recognition_ERP_protocol,2022.2.5,59.93525794027772,
Celebs/47_Johnny_Depp_0004.jpg,non_target,1,0,1,0,0,83,83,76,,,,,,,,,,,,342.40980729999137,342.40980729999137,342.9103894,,,,,,1,006,21,Sentado,2023-06-17_12h42.29.068,face_recognition_ERP_protocol,2022.2.5,59.93525794027772,
Celebs/22_Emma_Watson_0001.jpg,non_target,1,0,1,0,0,84,84,58,,,,,,,,,,,,343.4109104999807,343.4109104999807,343.91153489999124,,,,,,1,006,21,Sentado,2023-06-17_12h42.29.068,face_recognition_ERP_protocol,2022.2.5,59.93525794027772,
Celebs/37_Will_Smith_0015.jpg,non_target,1,0,1,0,0,85,85,113,,,,,,,,,,,,344.41203829998267,344.41203829998267,344.9126585999911,,,,,,1,006,21,Sentado,2023-06-17_12h42.29.068,face_recognition_ERP_protocol,2022.2.5,59.93525794027772,
Celebs/36_Jim_Parsons_0011.jpg,non_target,1,0,1,0,0,86,86,86,,,,,,,,,,,,345.41340469999705,345.41340469999705,345.9136549999821,,,,,,1,006,21,Sentado,2023-06-17_12h42.29.068,face_recognition_ERP_protocol,2022.2.5,59.93525794027772,
Celebs/43_Will_Smith_0006.jpg,non_target,1,0,1,0,0,87,87,61,,,,,,,,,,,,346.41420489997836,346.41420489997836,346.91478369999095,,,,,,1,006,21,Sentado,2023-06-17_12h42.29.068,face_recognition_ERP_protocol,2022.2.5,59.93525794027772,
Celebs/50_Jackie_Chan_0012.jpg,non_target,1,0,1,0,0,88,88,43,,,,,,,,,,,,347.4156352999853,347.4156352999853,347.9158350999933,,,,,,1,006,21,Sentado,2023-06-17_12h42.29.068,face_recognition_ERP_protocol,2022.2.5,59.93525794027772,
Celebs/50_Johnny_Depp_0008.jpg,non_target,1,0,1,0,0,89,89,84,,,,,,,,,,,,348.41688529998646,348.41688529998646,348.9170843999891,,,,,,1,006,21,Sentado,2023-06-17_12h42.29.068,face_recognition_ERP_protocol,2022.2.5,59.93525794027772,
Celebs/20_Margot_Robbie_0004.jpg,non_target,1,0,1,0,0,90,90,116,,,,,,,,,,,,349.4176455999841,349.4176455999841,349.918090799998,,,,,,1,006,21,Sentado,2023-06-17_12h42.29.068,face_recognition_ERP_protocol,2022.2.5,59.93525794027772,
Celebs/36_Neil_Patrick_Harris_0010.jpg,non_target,1,0,1,0,0,91,91,79,,,,,,,,,,,,350.4187358999916,350.4187358999916,350.91919419998885,,,,,,1,006,21,Sentado,2023-06-17_12h42.29.068,face_recognition_ERP_protocol,2022.2.5,59.93525794027772,
Celebs/42_Will_Smith_0012.jpg,non_target,1,0,1,0,0,92,92,64,,,,,,,,,,,,351.4195930999995,351.4195930999995,351.9201699999976,,,,,,1,006,21,Sentado,2023-06-17_12h42.29.068,face_recognition_ERP_protocol,2022.2.5,59.93525794027772,
Celebs/17_Emma_Watson_0006.jpg,non_target,1,0,1,0,0,93,93,90,,,,,,,,,,,,352.42144769997685,352.42144769997685,352.9213417999854,,,,,,1,006,21,Sentado,2023-06-17_12h42.29.068,face_recognition_ERP_protocol,2022.2.5,59.93525794027772,
Celebs/48_Johnny_Depp_0005.jpg,non_target,1,0,1,0,0,94,94,54,,,,,,,,,,,,353.4224348999851,353.4224348999851,353.92247689998476,,,,,,1,006,21,Sentado,2023-06-17_12h42.29.068,face_recognition_ERP_protocol,2022.2.5,59.93525794027772,
Celebs/37_Neil_Patrick_Harris_0014.jpg,non_target,1,0,1,0,0,95,95,37,,,,,,,,,,,,354.4228495999996,354.4228495999996,354.90686609997647,,,,,,1,006,21,Sentado,2023-06-17_12h42.29.068,face_recognition_ERP_protocol,2022.2.5,59.93525794027772,
Celebs/15_Margot_Robbie_0012.jpg,non_target,1,0,1,0,0,96,96,82,,,,,,,,,,,,355.4082750999951,355.4082750999951,355.90790029999334,,,,,,1,006,21,Sentado,2023-06-17_12h42.29.068,face_recognition_ERP_protocol,2022.2.5,59.93525794027772,
Celebs/24_Emma_Stone_0015.jpg,non_target,1,0,1,0,0,97,97,57,,,,,,,,,,,,356.4088431999844,356.4088431999844,356.909030299983,,,,,,1,006,21,Sentado,2023-06-17_12h42.29.068,face_recognition_ERP_protocol,2022.2.5,59.93525794027772,
Celebs/43_Will_Smith_0007.jpg,non_target,1,0,1,0,0,98,98,74,,,,,,,,,,,,357.40976469998714,357.40976469998714,357.9100601999962,,,,,,1,006,21,Sentado,2023-06-17_12h42.29.068,face_recognition_ERP_protocol,2022.2.5,59.93525794027772,
Celebs/33_Jim_Parsons_0011.jpg,non_target,1,0,1,0,0,99,99,34,,,,,,,,,,,,358.4106338999991,358.4106338999991,358.91117029997986,,,,,,1,006,21,Sentado,2023-06-17_12h42.29.068,face_recognition_ERP_protocol,2022.2.5,59.93525794027772,
Celebs/40_Jim_Parsons_0004.jpg,non_target,1,0,1,0,0,100,100,73,,,,,,,,,,,,359.4117406999867,359.4117406999867,359.91235349999624,,,,,,1,006,21,Sentado,2023-06-17_12h42.29.068,face_recognition_ERP_protocol,2022.2.5,59.93525794027772,
Celebs/21_Emma_Stone_0002.jpg,non_target,1,0,1,0,0,101,101,103,,,,,,,,,,,,360.4131362999906,360.4131362999906,360.91341889998876,,,,,,1,006,21,Sentado,2023-06-17_12h42.29.068,face_recognition_ERP_protocol,2022.2.5,59.93525794027772,
Celebs/14_Emma_Watson_0008.jpg,non_target,1,0,1,0,0,102,102,36,,,,,,,,,,,,361.4140851999982,361.4140851999982,361.91445739998017,,,,,,1,006,21,Sentado,2023-06-17_12h42.29.068,face_recognition_ERP_protocol,2022.2.5,59.93525794027772,
Celebs/55_Jackie_Chan_0008.jpg,non_target,1,0,1,0,0,103,103,92,,,,,,,,,,,,362.41508379997686,362.41508379997686,362.91555469998275,,,,,,1,006,21,Sentado,2023-06-17_12h42.29.068,face_recognition_ERP_protocol,2022.2.5,59.93525794027772,
Celebs/50_Johnny_Depp_0018.jpg,non_target,1,0,1,0,0,104,104,24,,,,,,,,,,,,363.41646199999377,363.41646199999377,363.9167038999731,,,,,,1,006,21,Sentado,2023-06-17_12h42.29.068,face_recognition_ERP_protocol,2022.2.5,59.93525794027772,
Celebs/54_Jackie_Chan_0001.jpg,non_target,1,0,1,0,0,105,105,7,,,,,,,,,,,,364.4175933999941,364.4175933999941,364.9177987999865,,,,,,1,006,21,Sentado,2023-06-17_12h42.29.068,face_recognition_ERP_protocol,2022.2.5,59.93525794027772,
Celebs/28_Scarlett_Johansson_0005.jpg,non_target,1,0,1,0,0,106,106,50,,,,,,,,,,,,365.4182069999806,365.4182069999806,365.91892279998865,,,,,,1,006,21,Sentado,2023-06-17_12h42.29.068,face_recognition_ERP_protocol,2022.2.5,59.93525794027772,
Celebs/22_Margot_Robbie_0010.jpg,non_target,1,0,1,0,0,107,107,18,,,,,,,,,,,,366.41945369998575,366.41945369998575,366.91994169997633,,,,,,1,006,21,Sentado,2023-06-17_12h42.29.068,face_recognition_ERP_protocol,2022.2.5,59.93525794027772,
Celebs/51_Jackie_Chan_0006.jpg,non_target,1,0,1,0,0,108,108,97,,,,,,,,,,,,367.4203727999993,367.4203727999993,367.9210995999747,,,,,,1,006,21,Sentado,2023-06-17_12h42.29.068,face_recognition_ERP_protocol,2022.2.5,59.93525794027772,
Celebs/39_Jim_Parsons_0001.jpg,non_target,1,0,1,0,0,109,109,49,,,,,,,,,,,,368.422185399977,368.422185399977,368.92213279998396,,,,,,1,006,21,Sentado,2023-06-17_12h42.29.068,face_recognition_ERP_protocol,2022.2.5,59.93525794027772,
Celebs/16_Emma_Stone_0014.jpg,non_target,1,0,1,0,0,110,110,40,,,,,,,,,,,,369.42304999998305,369.42304999998305,369.9066057999735,,,,,,1,006,21,Sentado,2023-06-17_12h42.29.068,face_recognition_ERP_protocol,2022.2.5,59.93525794027772,
Celebs/39_Neil_Patrick_Harris_0010.jpg,non_target,1,0,1,0,0,111,111,94,,,,,,,,,,,,370.4074416999938,370.4074416999938,370.9076532999752,,,,,,1,006,21,Sentado,2023-06-17_12h42.29.068,face_recognition_ERP_protocol,2022.2.5,59.93525794027772,
Celebs/40_Jim_Parsons_0015.jpg,non_target,1,0,1,0,0,112,112,45,,,,,,,,,,,,371.40855689998716,371.40855689998716,371.9087926999782,,,,,,1,006,21,Sentado,2023-06-17_12h42.29.068,face_recognition_ERP_protocol,2022.2.5,59.93525794027772,
Celebs/18_Emma_Watson_0004.jpg,non_target,1,0,1,0,0,113,113,75,,,,,,,,,,,,372.4091497999907,372.4091497999907,372.9098645999911,,,,,,1,006,21,Sentado,2023-06-17_12h42.29.068,face_recognition_ERP_protocol,2022.2.5,59.93525794027772,
Celebs/16_Emma_Stone_0010.jpg,non_target,1,0,1,0,0,114,114,95,,,,,,,,,,,,373.4105220999918,373.4105220999918,373.91092659998685,,,,,,1,006,21,Sentado,2023-06-17_12h42.29.068,face_recognition_ERP_protocol,2022.2.5,59.93525794027772,
Celebs/18_Daniel_Radcliffe_0002.jpg,target,1,0,1,0,0,115,115,119,,,,,,,,,,,,374.41144249998615,374.41144249998615,374.912030699983,,,,,,1,006,21,Sentado,2023-06-17_12h42.29.068,face_recognition_ERP_protocol,2022.2.5,59.93525794027772,
Celebs/45_Johnny_Depp_0003.jpg,non_target,1,0,1,0,0,116,116,108,,,,,,,,,,,,375.413083499996,375.413083499996,375.91313869997975,,,,,,1,006,21,Sentado,2023-06-17_12h42.29.068,face_recognition_ERP_protocol,2022.2.5,59.93525794027772,
Celebs/52_Jackie_Chan_0002.jpg,non_target,1,0,1,0,0,117,117,68,,,,,,,,,,,,376.4139768999885,376.4139768999885,376.9142751999898,,,,,,1,006,21,Sentado,2023-06-17_12h42.29.068,face_recognition_ERP_protocol,2022.2.5,59.93525794027772,
Celebs/26_Scarlett_Johansson_0003.jpg,non_target,1,0,1,0,0,118,118,105,,,,,,,,,,,,377.41486649998114,377.41486649998114,377.91533989997697,,,,,,1,006,21,Sentado,2023-06-17_12h42.29.068,face_recognition_ERP_protocol,2022.2.5,59.93525794027772,
Celebs/31_Neil_Patrick_Harris_0008.jpg,non_target,1,0,1,0,0,119,119,99,,,,,,,,,,,,378.4159684999904,378.4159684999904,378.91647029999876,,,,,,1,006,21,Sentado,2023-06-17_12h42.29.068,face_recognition_ERP_protocol,2022.2.5,59.93525794027772,
Celebs/21_Daniel_Radcliffe_0008.jpg,target,2,0,2,0,0,0,0,16,,,,,,,,,,,,385.6906874999986,385.6906874999986,386.1577296999749,379.41701289999764,379.41701289999764,space,6.192494100017939,,1,006,21,Sentado,2023-06-17_12h42.29.068,face_recognition_ERP_protocol,2022.2.5,59.93525794027772,
Celebs/24_Emma_Stone_0015.jpg,non_target,2,0,2,0,0,1,1,57,,,,,,,,,,,,386.65805679999175,386.65805679999175,387.1587950999965,,,,,,1,006,21,Sentado,2023-06-17_12h42.29.068,face_recognition_ERP_protocol,2022.2.5,59.93525794027772,
Celebs/52_Jackie_Chan_0002.jpg,non_target,2,0,2,0,0,2,2,68,,,,,,,,,,,,387.6590473999968,387.6590473999968,388.1431767999893,,,,,,1,006,21,Sentado,2023-06-17_12h42.29.068,face_recognition_ERP_protocol,2022.2.5,59.93525794027772,
Celebs/31_Neil_Patrick_Harris_0008.jpg,non_target,2,0,2,0,0,3,3,99,,,,,,,,,,,,388.64385429999675,388.64385429999675,389.1443369999761,,,,,,1,006,21,Sentado,2023-06-17_12h42.29.068,face_recognition_ERP_protocol,2022.2.5,59.93525794027772,
Celebs/17_Margot_Robbie_0014.jpg,non_target,2,0,2,0,0,4,4,114,,,,,,,,,,,,389.6450413999846,389.6450413999846,390.1453246999881,,,,,,1,006,21,Sentado,2023-06-17_12h42.29.068,face_recognition_ERP_protocol,2022.2.5,59.93525794027772,
Celebs/34_Neil_Patrick_Harris_0004.jpg,non_target,2,0,2,0,0,5,5,104,,,,,,,,,,,,390.6461417999817,390.6461417999817,391.14654580000206,,,,,,1,006,21,Sentado,2023-06-17_12h42.29.068,face_recognition_ERP_protocol,2022.2.5,59.93525794027772,
Celebs/40_Will_Smith_0012.jpg,non_target,2,0,2,0,0,6,6,110,,,,,,,,,,,,391.646829299978,391.646829299978,392.1476599999878,,,,,,1,006,21,Sentado,2023-06-17_12h42.29.068,face_recognition_ERP_protocol,2022.2.5,59.93525794027772,
Celebs/17_Daniel_Radcliffe_0007.jpg,target,2,0,2,0,0,7,7,19,,,,,,,,,,,,392.648538599984,392.648538599984,393.1486508999951,,,,,,1,006,21,Sentado,2023-06-17_12h42.29.068,face_recognition_ERP_protocol,2022.2.5,59.93525794027772,
Celebs/22_Emma_Watson_0003.jpg,non_target,2,0,2,0,0,8,8,91,,,,,,,,,,,,393.6489732999762,393.6489732999762,394.14977530000033,,,,,,1,006,21,Sentado,2023-06-17_12h42.29.068,face_recognition_ERP_protocol,2022.2.5,59.93525794027772,
Celebs/39_Jim_Parsons_0010.jpg,non_target,2,0,2,0,0,9,9,0,,,,,,,,,,,,394.65004539999063,394.65004539999063,395.15090479998617,,,,,,1,006,21,Sentado,2023-06-17_12h42.29.068,face_recognition_ERP_protocol,2022.2.5,59.93525794027772,
Celebs/58_Jackie_Chan_0005.jpg,non_target,2,0,2,0,0,10,10,3,,,,,,,,,,,,395.65160079998896,395.65160079998896,396.15194339997834,,,,,,1,006,21,Sentado,2023-06-17_12h42.29.068,face_recognition_ERP_protocol,2022.2.5,59.93525794027772,
Celebs/28_Scarlett_Johansson_0005.jpg,non_target,2,0,2,0,0,11,11,50,,,,,,,,,,,,396.65245850000065,396.65245850000065,397.15322739997646,,,,,,1,006,21,Sentado,2023-06-17_12h42.29.068,face_recognition_ERP_protocol,2022.2.5,59.93525794027772,
Celebs/21_Emma_Watson_0004.jpg,non_target,2,0,2,0,0,12,12,21,,,,,,,,,,,,397.6543612999958,397.6543612999958,398.1541021000012,,,,,,1,006,21,Sentado,2023-06-17_12h42.29.068,face_recognition_ERP_protocol,2022.2.5,59.93525794027772,
Celebs/23_Daniel_Radcliffe_0010.jpg,target,2,0,2,0,0,13,13,15,,,,,,,,,,,,398.65450219999184,398.65450219999184,399.1553112999827,,,,,,1,006,21,Sentado,2023-06-17_12h42.29.068,face_recognition_ERP_protocol,2022.2.5,59.93525794027772,
Celebs/19_Emma_Stone_0006.jpg,non_target,2,0,2,0,0,14,14,66,,,,,,,,,,,,399.655571899988,399.655571899988,400.1563247999875,,,,,,1,006,21,Sentado,2023-06-17_12h42.29.068,face_recognition_ERP_protocol,2022.2.5,59.93525794027772,
Celebs/15_Margot_Robbie_0012.jpg,non_target,2,0,2,0,0,15,15,82,,,,,,,,,,,,400.65677299999516,400.65677299999516,401.1574851999758,,,,,,1,006,21,Sentado,2023-06-17_12h42.29.068,face_recognition_ERP_protocol,2022.2.5,59.93525794027772,
Celebs/40_Jim_Parsons_0015.jpg,non_target,2,0,2,0,0,16,16,45,,,,,,,,,,,,401.65799859998515,401.65799859998515,402.15843459998723,,,,,,1,006,21,Sentado,2023-06-17_12h42.29.068,face_recognition_ERP_protocol,2022.2.5,59.93525794027772,
Celebs/47_Johnny_Depp_0003.jpg,non_target,2,0,2,0,0,17,17,9,,,,,,,,,,,,402.6591137999785,402.6591137999785,403.1428592999873,,,,,,1,006,21,Sentado,2023-06-17_12h42.29.068,face_recognition_ERP_protocol,2022.2.5,59.93525794027772,
Celebs/43_Will_Smith_0007.jpg,non_target,2,0,2,0,0,18,18,74,,,,,,,,,,,,403.6432980999816,403.6432980999816,404.1440841000003,,,,,,1,006,21,Sentado,2023-06-17_12h42.29.068,face_recognition_ERP_protocol,2022.2.5,59.93525794027772,
Celebs/14_Emma_Watson_0015.jpg,non_target,2,0,2,0,0,19,19,56,,,,,,,,,,,,404.64467029998195,404.64467029998195,405.14507079997566,,,,,,1,006,21,Sentado,2023-06-17_12h42.29.068,face_recognition_ERP_protocol,2022.2.5,59.93525794027772,
Celebs/50_Johnny_Depp_0008.jpg,non_target,2,0,2,0,0,20,20,84,,,,,,,,,,,,405.64579399998183,405.64579399998183,406.1463249999797,,,,,,1,006,21,Sentado,2023-06-17_12h42.29.068,face_recognition_ERP_protocol,2022.2.5,59.93525794027772,
Celebs/20_Scarlett_Johansson_0011.jpg,non_target,2,0,2,0,0,21,21,109,,,,,,,,,,,,406.6466943999985,406.6466943999985,407.1473166999931,,,,,,1,006,21,Sentado,2023-06-17_12h42.29.068,face_recognition_ERP_protocol,2022.2.5,59.93525794027772,
Celebs/20_Margot_Robbie_0004.jpg,non_target,2,0,2,0,0,22,22,116,,,,,,,,,,,,407.64781749999383,407.64781749999383,408.1484679999994,,,,,,1,006,21,Sentado,2023-06-17_12h42.29.068,face_recognition_ERP_protocol,2022.2.5,59.93525794027772,
Celebs/14_Emma_Watson_0008.jpg,non_target,2,0,2,0,0,23,23,36,,,,,,,,,,,,408.6488074999943,408.6488074999943,409.149468299991,,,,,,1,006,21,Sentado,2023-06-17_12h42.29.068,face_recognition_ERP_protocol,2022.2.5,59.93525794027772,
Celebs/54_Jackie_Chan_0001.jpg,non_target,2,0,2,0,0,24,24,7,,,,,,,,,,,,409.6497916999797,409.6497916999797,410.15052299998933,,,,,,1,006,21,Sentado,2023-06-17_12h42.29.068,face_recognition_ERP_protocol,2022.2.5,59.93525794027772,
Celebs/47_Johnny_Depp_0009.jpg,non_target,2,0,2,0,0,25,25,23,,,,,,,,,,,,410.6510883999872,410.6510883999872,411.15171229999396,,,,,,1,006,21,Sentado,2023-06-17_12h42.29.068,face_recognition_ERP_protocol,2022.2.5,59.93525794027772,
Celebs/47_Johnny_Depp_0004.jpg,non_target,2,0,2,0,0,26,26,76,,,,,,,,,,,,411.6521504999837,411.6521504999837,412.15275269999984,,,,,,1,006,21,Sentado,2023-06-17_12h42.29.068,face_recognition_ERP_protocol,2022.2.5,59.93525794027772,
Celebs/16_Emma_Stone_0010.jpg,non_target,2,0,2,0,0,27,27,95,,,,,,,,,,,,412.65314819998457,412.65314819998457,413.153817399987,,,,,,1,006,21,Sentado,2023-06-17_12h42.29.068,face_recognition_ERP_protocol,2022.2.5,59.93525794027772,
Celebs/14_Emma_Watson_0013.jpg,non_target,2,0,2,0,0,28,28,20,,,,,,,,,,,,413.65430189998006,413.65430189998006,414.1549392999732,,,,,,1,006,21,Sentado,2023-06-17_12h42.29.068,face_recognition_ERP_protocol,2022.2.5,59.93525794027772,
Celebs/44_Will_Smith_0007.jpg,non_target,2,0,2,0,0,29,29,65,,,,,,,,,,,,414.65552179998485,414.65552179998485,415.15605809999397,,,,,,1,006,21,Sentado,2023-06-17_12h42.29.068,face_recognition_ERP_protocol,2022.2.5,59.93525794027772,
Celebs/50_Jackie_Chan_0012.jpg,non_target,2,0,2,0,0,30,30,43,,,,,,,,,,,,415.6563649000018,415.6563649000018,416.1572623999964,,,,,,1,006,21,Sentado,2023-06-17_12h42.29.068,face_recognition_ERP_protocol,2022.2.5,59.93525794027772,
Celebs/15_Margot_Robbie_0005.jpg,non_target,2,0,2,0,0,31,31,80,,,,,,,,,,,,416.6575343000004,416.6575343000004,417.15832180000143,,,,,,1,006,21,Sentado,2023-06-17_12h42.29.068,face_recognition_ERP_protocol,2022.2.5,59.93525794027772,
Celebs/18_Emma_Stone_0016.jpg,non_target,2,0,2,0,0,32,32,52,,,,,,,,,,,,417.6587268000003,417.6587268000003,418.14258779998636,,,,,,1,006,21,Sentado,2023-06-17_12h42.29.068,face_recognition_ERP_protocol,2022.2.5,59.93525794027772,
Celebs/23_Daniel_Radcliffe_0002.jpg,target,2,0,2,0,0,33,33,77,,,,,,,,,,,,418.6432109999878,418.6432109999878,419.1437135999731,,,,,,1,006,21,Sentado,2023-06-17_12h42.29.068,face_recognition_ERP_protocol,2022.2.5,59.93525794027772,
Celebs/39_Jim_Parsons_0008.jpg,non_target,2,0,2,0,0,34,34,89,,,,,,,,,,,,419.6444007999962,419.6444007999962,420.1447770999803,,,,,,1,006,21,Sentado,2023-06-17_12h42.29.068,face_recognition_ERP_protocol,2022.2.5,59.93525794027772,
Celebs/18_Daniel_Radcliffe_0007.jpg,target,2,0,2,0,0,35,35,81,,,,,,,,,,,,420.64553339997656,420.64553339997656,421.14595959999133,,,,,,1,006,21,Sentado,2023-06-17_12h42.29.068,face_recognition_ERP_protocol,2022.2.5,59.93525794027772,
Celebs/16_Emma_Stone_0014.jpg,non_target,2,0,2,0,0,36,36,40,,,,,,,,,,,,421.6463780999766,421.6463780999766,422.1470255999884,,,,,,1,006,21,Sentado,2023-06-17_12h42.29.068,face_recognition_ERP_protocol,2022.2.5,59.93525794027772,
Celebs/23_Emma_Stone_0014.jpg,non_target,2,0,2,0,0,37,37,12,,,,,,,,,,,,422.6474436999997,422.6474436999997,423.14805419999175,,,,,,1,006,21,Sentado,2023-06-17_12h42.29.068,face_recognition_ERP_protocol,2022.2.5,59.93525794027772,
Celebs/55_Jackie_Chan_0008.jpg,non_target,2,0,2,0,0,38,38,92,,,,,,,,,,,,423.64854339999147,423.64854339999147,424.14922859999933,,,,,,1,006,21,Sentado,2023-06-17_12h42.29.068,face_recognition_ERP_protocol,2022.2.5,59.93525794027772,
Celebs/29_Scarlett_Johansson_0016.jpg,non_target,2,0,2,0,0,39,39,2,,,,,,,,,,,,424.64961069999845,424.64961069999845,425.1503626999911,,,,,,1,006,21,Sentado,2023-06-17_12h42.29.068,face_recognition_ERP_protocol,2022.2.5,59.93525794027772,
Celebs/20_Emma_Watson_0007.jpg,non_target,2,0,2,0,0,40,40,96,,,,,,,,,,,,425.65120599998045,425.65120599998045,426.15136999997776,,,,,,1,006,21,Sentado,2023-06-17_12h42.29.068,face_recognition_ERP_protocol,2022.2.5,59.93525794027772,
Celebs/43_Will_Smith_0006.jpg,non_target,2,0,2,0,0,41,41,61,,,,,,,,,,,,426.652391599986,426.652391599986,427.1526001999737,,,,,,1,006,21,Sentado,2023-06-17_12h42.29.068,face_recognition_ERP_protocol,2022.2.5,59.93525794027772,
Celebs/17_Margot_Robbie_0012.jpg,non_target,2,0,2,0,0,42,42,67,,,,,,,,,,,,427.6529853999964,427.6529853999964,428.1535915999848,,,,,,1,006,21,Sentado,2023-06-17_12h42.29.068,face_recognition_ERP_protocol,2022.2.5,59.93525794027772,
Celebs/43_Will_Smith_0010.jpg,non_target,2,0,2,0,0,43,43,22,,,,,,,,,,,,428.65417379999417,428.65417379999417,429.15473369997926,,,,,,1,006,21,Sentado,2023-06-17_12h42.29.068,face_recognition_ERP_protocol,2022.2.5,59.93525794027772,
Celebs/26_Scarlett_Johansson_0008.jpg,non_target,2,0,2,0,0,44,44,47,,,,,,,,,,,,429.65513159998227,429.65513159998227,430.15583799997694,,,,,,1,006,21,Sentado,2023-06-17_12h42.29.068,face_recognition_ERP_protocol,2022.2.5,59.93525794027772,
Celebs/55_Jackie_Chan_0003.jpg,non_target,2,0,2,0,0,45,45,29,,,,,,,,,,,,430.6567184999876,430.6567184999876,431.15694169999915,,,,,,1,006,21,Sentado,2023-06-17_12h42.29.068,face_recognition_ERP_protocol,2022.2.5,59.93525794027772,
Celebs/39_Jim_Parsons_0004.jpg,non_target,2,0,2,0,0,46,46,88,,,,,,,,,,,,431.6573135999788,431.6573135999788,432.15798069999437,,,,,,1,006,21,Sentado,2023-06-17_12h42.29.068,face_recognition_ERP_protocol,2022.2.5,59.93525794027772,
Celebs/42_Will_Smith_0012.jpg,non_target,2,0,2,0,0,47,47,64,,,,,,,,,,,,432.6583710999985,432.6583710999985,433.15904309999314,,,,,,1,006,21,Sentado,2023-06-17_12h42.29.068,face_recognition_ERP_protocol,2022.2.5,59.93525794027772,
Celebs/33_Jim_Parsons_0011.jpg,non_target,2,0,2,0,0,48,48,34,,,,,,,,,,,,433.6429777999874,433.6429777999874,434.1435713999963,,,,,,1,006,21,Sentado,2023-06-17_12h42.29.068,face_recognition_ERP_protocol,2022.2.5,59.93525794027772,
Celebs/57_Jackie_Chan_0008.jpg,non_target,2,0,2,0,0,49,49,72,,,,,,,,,,,,434.64381649999996,434.64381649999996,435.144536399981,,,,,,1,006,21,Sentado,2023-06-17_12h42.29.068,face_recognition_ERP_protocol,2022.2.5,59.93525794027772,
Celebs/37_Neil_Patrick_Harris_0010.jpg,non_target,2,0,2,0,0,50,50,93,,,,,,,,,,,,435.6452978999878,435.6452978999878,436.14557889997377,,,,,,1,006,21,Sentado,2023-06-17_12h42.29.068,face_recognition_ERP_protocol,2022.2.5,59.93525794027772,
Celebs/39_Neil_Patrick_Harris_0010.jpg,non_target,2,0,2,0,0,51,51,94,,,,,,,,,,,,436.64598619999015,436.64598619999015,437.1467270999856,,,,,,1,006,21,Sentado,2023-06-17_12h42.29.068,face_recognition_ERP_protocol,2022.2.5,59.93525794027772,
Celebs/19_Margot_Robbie_0001.jpg,non_target,2,0,2,0,0,52,52,51,,,,,,,,,,,,437.6471014999843,437.6471014999843,438.1478291999956,,,,,,1,006,21,Sentado,2023-06-17_12h42.29.068,face_recognition_ERP_protocol,2022.2.5,59.93525794027772,
Celebs/37_Neil_Patrick_Harris_0014.jpg,non_target,2,0,2,0,0,53,53,37,,,,,,,,,,,,438.64817729999777,438.64817729999777,439.1489065999922,,,,,,1,006,21,Sentado,2023-06-17_12h42.29.068,face_recognition_ERP_protocol,2022.2.5,59.93525794027772,
Celebs/32_Jim_Parsons_0016.jpg,non_target,2,0,2,0,0,54,54,102,,,,,,,,,,,,439.64921279999544,439.64921279999544,440.15006089999224,,,,,,1,006,21,Sentado,2023-06-17_12h42.29.068,face_recognition_ERP_protocol,2022.2.5,59.93525794027772,
Celebs/40_Jim_Parsons_0004.jpg,non_target,2,0,2,0,0,55,55,73,,,,,,,,,,,,440.65047459999914,440.65047459999914,441.1511471999984,,,,,,1,006,21,Sentado,2023-06-17_12h42.29.068,face_recognition_ERP_protocol,2022.2.5,59.93525794027772,
Celebs/20_Emma_Stone_0005.jpg,non_target,2,0,2,0,0,56,56,63,,,,,,,,,,,,441.6518192999938,441.6518192999938,442.15224759999546,,,,,,1,006,21,Sentado,2023-06-17_12h42.29.068,face_recognition_ERP_protocol,2022.2.5,59.93525794027772,
Celebs/16_Emma_Stone_0008.jpg,non_target,2,0,2,0,0,57,57,48,,,,,,,,,,,,442.65289859997574,442.65289859997574,443.1532919999736,,,,,,1,006,21,Sentado,2023-06-17_12h42.29.068,face_recognition_ERP_protocol,2022.2.5,59.93525794027772,
Celebs/50_Jackie_Chan_0014.jpg,non_target,2,0,2,0,0,58,58,38,,,,,,,,,,,,443.65385360000073,443.65385360000073,444.1543685999932,,,,,,1,006,21,Sentado,2023-06-17_12h42.29.068,face_recognition_ERP_protocol,2022.2.5,59.93525794027772,
Celebs/32_Jim_Parsons_0010.jpg,non_target,2,0,2,0,0,59,59,98,,,,,,,,,,,,444.65481919999,444.65481919999,445.15541680000024,,,,,,1,006,21,Sentado,2023-06-17_12h42.29.068,face_recognition_ERP_protocol,2022.2.5,59.93525794027772,
Celebs/16_Emma_Stone_0012.jpg,non_target,2,0,2,0,0,60,60,70,,,,,,,,,,,,445.65611889999127,445.65611889999127,446.15659449997474,,,,,,1,006,21,Sentado,2023-06-17_12h42.29.068,face_recognition_ERP_protocol,2022.2.5,59.93525794027772,
Celebs/57_Jackie_Chan_0010.jpg,non_target,2,0,2,0,0,61,61,62,,,,,,,,,,,,446.65768919998663,446.65768919998663,447.1577508999908,,,,,,1,006,21,Sentado,2023-06-17_12h42.29.068,face_recognition_ERP_protocol,2022.2.5,59.93525794027772,
Celebs/35_Neil_Patrick_Harris_0009.jpg,non_target,2,0,2,0,0,62,62,87,,,,,,,,,,,,447.65819419999025,447.65819419999025,448.1587916999997,,,,,,1,006,21,Sentado,2023-06-17_12h42.29.068,face_recognition_ERP_protocol,2022.2.5,59.93525794027772,
Celebs/33_Neil_Patrick_Harris_0011.jpg,non_target,2,0,2,0,0,63,63,112,,,,,,,,,,,,448.6593207999831,448.6593207999831,449.14321729997755,,,,,,1,006,21,Sentado,2023-06-17_12h42.29.068,face_recognition_ERP_protocol,2022.2.5,59.93525794027772,
Celebs/27_Scarlett_Johansson_0012.jpg,non_target,2,0,2,0,0,64,64,78,,,,,,,,,,,,449.6437304999854,449.6437304999854,450.14433189999545,,,,,,1,006,21,Sentado,2023-06-17_12h42.29.068,face_recognition_ERP_protocol,2022.2.5,59.93525794027772,
Celebs/26_Scarlett_Johansson_0003.jpg,non_target,2,0,2,0,0,65,65,105,,,,,,,,,,,,450.6453868999961,450.6453868999961,451.14543019997654,,,,,,1,006,21,Sentado,2023-06-17_12h42.29.068,face_recognition_ERP_protocol,2022.2.5,59.93525794027772,
Celebs/21_Scarlett_Johansson_0007.jpg,non_target,2,0,2,0,0,66,66,118,,,,,,,,,,,,451.64588169998024,451.64588169998024,452.14650569998776,,,,,,1,006,21,Sentado,2023-06-17_12h42.29.068,face_recognition_ERP_protocol,2022.2.5,59.93525794027772,
Celebs/16_Margot_Robbie_0009.jpg,non_target,2,0,2,0,0,67,67,107,,,,,,,,,,,,452.647272000002,452.647272000002,453.1476425000001,,,,,,1,006,21,Sentado,2023-06-17_12h42.29.068,face_recognition_ERP_protocol,2022.2.5,59.93525794027772,
Celebs/22_Emma_Watson_0001.jpg,non_target,2,0,2,0,0,68,68,58,,,,,,,,,,,,453.6480050999962,453.6480050999962,454.1486372999789,,,,,,1,006,21,Sentado,2023-06-17_12h42.29.068,face_recognition_ERP_protocol,2022.2.5,59.93525794027772,
Celebs/34_Neil_Patrick_Harris_0007.jpg,non_target,2,0,2,0,0,69,69,117,,,,,,,,,,,,454.6490951999731,454.6490951999731,455.1497734999866,,,,,,1,006,21,Sentado,2023-06-17_12h42.29.068,face_recognition_ERP_protocol,2022.2.5,59.93525794027772,
Celebs/44_Will_Smith_0015.jpg,non_target,2,0,2,0,0,70,70,101,,,,,,,,,,,,455.6501556999865,455.6501556999865,456.15083519998007,,,,,,1,006,21,Sentado,2023-06-17_12h42.29.068,face_recognition_ERP_protocol,2022.2.5,59.93525794027772,
Celebs/17_Emma_Watson_0006.jpg,non_target,2,0,2,0,0,71,71,90,,,,,,,,,,,,456.6515279999876,456.6515279999876,457.15190329999314,,,,,,1,006,21,Sentado,2023-06-17_12h42.29.068,face_recognition_ERP_protocol,2022.2.5,59.93525794027772,
Celebs/14_Emma_Watson_0004.jpg,non_target,2,0,2,0,0,72,72,14,,,,,,,,,,,,457.6525636999868,457.6525636999868,458.152912199992,,,,,,1,006,21,Sentado,2023-06-17_12h42.29.068,face_recognition_ERP_protocol,2022.2.5,59.93525794027772,
Celebs/21_Daniel_Radcliffe_0012.jpg,target,2,0,2,0,0,73,73,8,,,,,,,,,,,,458.6535948999808,458.6535948999808,459.15417689998867,,,,,,1,006,21,Sentado,2023-06-17_12h42.29.068,face_recognition_ERP_protocol,2022.2.5,59.93525794027772,
Celebs/23_Daniel_Radcliffe_0019.jpg,target,2,0,2,0,0,74,74,6,,,,,,,,,,,,459.65459479999845,459.65459479999845,460.15521909997915,,,,,,1,006,21,Sentado,2023-06-17_12h42.29.068,face_recognition_ERP_protocol,2022.2.5,59.93525794027772,
Celebs/24_Daniel_Radcliffe_0017.jpg,target,2,0,2,0,0,75,75,71,,,,,,,,,,,,460.6557494000008,460.6557494000008,461.15628739999374,,,,,,1,006,21,Sentado,2023-06-17_12h42.29.068,face_recognition_ERP_protocol,2022.2.5,59.93525794027772,
Celebs/25_Scarlett_Johansson_0010.jpg,non_target,2,0,2,0,0,76,76,32,,,,,,,,,,,,461.65674559999024,461.65674559999024,462.15737709999667,,,,,,1,006,21,Sentado,2023-06-17_12h42.29.068,face_recognition_ERP_protocol,2022.2.5,59.93525794027772,
Celebs/48_Johnny_Depp_0005.jpg,non_target,2,0,2,0,0,77,77,54,,,,,,,,,,,,462.6583259999752,462.6583259999752,463.15858179997304,,,,,,1,006,21,Sentado,2023-06-17_12h42.29.068,face_recognition_ERP_protocol,2022.2.5,59.93525794027772,
Celebs/24_Scarlett_Johansson_0011.jpg,non_target,2,0,2,0,0,78,78,100,,,,,,,,,,,,463.659705500002,463.659705500002,464.1429390999838,,,,,,1,006,21,Sentado,2023-06-17_12h42.29.068,face_recognition_ERP_protocol,2022.2.5,59.93525794027772,
Celebs/18_Emma_Watson_0004.jpg,non_target,2,0,2,0,0,79,79,75,,,,,,,,,,,,464.6433185999922,464.6433185999922,465.1441024999949,,,,,,1,006,21,Sentado,2023-06-17_12h42.29.068,face_recognition_ERP_protocol,2022.2.5,59.93525794027772,
Celebs/39_Jim_Parsons_0001.jpg,non_target,2,0,2,0,0,80,80,49,,,,,,,,,,,,465.6444608999882,465.6444608999882,466.1450814999989,,,,,,1,006,21,Sentado,2023-06-17_12h42.29.068,face_recognition_ERP_protocol,2022.2.5,59.93525794027772,
Celebs/38_Jim_Parsons_0003.jpg,non_target,2,0,2,0,0,81,81,53,,,,,,,,,,,,466.64544110000134,466.64544110000134,467.1463115999941,,,,,,1,006,21,Sentado,2023-06-17_12h42.29.068,face_recognition_ERP_protocol,2022.2.5,59.93525794027772,
Celebs/22_Scarlett_Johansson_0005.jpg,non_target,2,0,2,0,0,82,82,44,,,,,,,,,,,,467.64693129999796,467.64693129999796,468.1473253000004,,,,,,1,006,21,Sentado,2023-06-17_12h42.29.068,face_recognition_ERP_protocol,2022.2.5,59.93525794027772,
Celebs/54_Jackie_Chan_0014.jpg,non_target,2,0,2,0,0,83,83,111,,,,,,,,,,,,468.6478191999777,468.6478191999777,469.1484752999968,,,,,,1,006,21,Sentado,2023-06-17_12h42.29.068,face_recognition_ERP_protocol,2022.2.5,59.93525794027772,
Celebs/14_Emma_Watson_0005.jpg,non_target,2,0,2,0,0,84,84,26,,,,,,,,,,,,469.64874189998955,469.64874189998955,470.1495078000007,,,,,,1,006,21,Sentado,2023-06-17_12h42.29.068,face_recognition_ERP_protocol,2022.2.5,59.93525794027772,
Celebs/50_Johnny_Depp_0018.jpg,non_target,2,0,2,0,0,85,85,24,,,,,,,,,,,,470.64998759998707,470.64998759998707,471.15062519998173,,,,,,1,006,21,Sentado,2023-06-17_12h42.29.068,face_recognition_ERP_protocol,2022.2.5,59.93525794027772,
Celebs/20_Margot_Robbie_0006.jpg,non_target,2,0,2,0,0,86,86,35,,,,,,,,,,,,471.65102079999633,471.65102079999633,472.15163569999277,,,,,,1,006,21,Sentado,2023-06-17_12h42.29.068,face_recognition_ERP_protocol,2022.2.5,59.93525794027772,
Celebs/50_Johnny_Depp_0010.jpg,non_target,2,0,2,0,0,87,87,115,,,,,,,,,,,,472.65223179999157,472.65223179999157,473.15272829998867,,,,,,1,006,21,Sentado,2023-06-17_12h42.29.068,face_recognition_ERP_protocol,2022.2.5,59.93525794027772,
Celebs/55_Jackie_Chan_0015.jpg,non_target,2,0,2,0,0,88,88,30,,,,,,,,,,,,473.6534437999944,473.6534437999944,474.1539423999784,,,,,,1,006,21,Sentado,2023-06-17_12h42.29.068,face_recognition_ERP_protocol,2022.2.5,59.93525794027772,
Celebs/45_Johnny_Depp_0003.jpg,non_target,2,0,2,0,0,89,89,108,,,,,,,,,,,,474.65590699997847,474.65590699997847,475.15500410000095,,,,,,1,006,21,Sentado,2023-06-17_12h42.29.068,face_recognition_ERP_protocol,2022.2.5,59.93525794027772,
Celebs/24_Scarlett_Johansson_0001.jpg,non_target,2,0,2,0,0,90,90,10,,,,,,,,,,,,475.655462499999,475.655462499999,476.15616549999686,,,,,,1,006,21,Sentado,2023-06-17_12h42.29.068,face_recognition_ERP_protocol,2022.2.5,59.93525794027772,
Celebs/37_Will_Smith_0015.jpg,non_target,2,0,2,0,0,91,91,113,,,,,,,,,,,,476.65655849999166,476.65655849999166,477.1571529999783,,,,,,1,006,21,Sentado,2023-06-17_12h42.29.068,face_recognition_ERP_protocol,2022.2.5,59.93525794027772,
Celebs/32_Jim_Parsons_0018.jpg,non_target,2,0,2,0,0,92,92,46,,,,,,,,,,,,477.65768939998816,477.65768939998816,478.1582385999791,,,,,,1,006,21,Sentado,2023-06-17_12h42.29.068,face_recognition_ERP_protocol,2022.2.5,59.93525794027772,
Celebs/21_Margot_Robbie_0003.jpg,non_target,2,0,2,0,0,93,93,27,,,,,,,,,,,,478.6585526999843,478.6585526999843,479.15935819997685,,,,,,1,006,21,Sentado,2023-06-17_12h42.29.068,face_recognition_ERP_protocol,2022.2.5,59.93525794027772,
Celebs/21_Emma_Stone_0003.jpg,non_target,2,0,2,0,0,94,94,25,,,,,,,,,,,,479.6430932999938,479.6430932999938,480.14373269997304,,,,,,1,006,21,Sentado,2023-06-17_12h42.29.068,face_recognition_ERP_protocol,2022.2.5,59.93525794027772,
Celebs/38_Neil_Patrick_Harris_0006.jpg,non_target,2,0,2,0,0,95,95,31,,,,,,,,,,,,480.64414659998147,480.64414659998147,481.1448641999741,,,,,,1,006,21,Sentado,2023-06-17_12h42.29.068,face_recognition_ERP_protocol,2022.2.5,59.93525794027772,
Celebs/17_Margot_Robbie_0006.jpg,non_target,2,0,2,0,0,96,96,17,,,,,,,,,,,,481.6453984999971,481.6453984999971,482.14595979999285,,,,,,1,006,21,Sentado,2023-06-17_12h42.29.068,face_recognition_ERP_protocol,2022.2.5,59.93525794027772,
Celebs/21_Daniel_Radcliffe_0009.jpg,target,2,0,2,0,0,97,97,83,,,,,,,,,,,,482.6464600999898,482.6464600999898,483.14706039999146,,,,,,1,006,21,Sentado,2023-06-17_12h42.29.068,face_recognition_ERP_protocol,2022.2.5,59.93525794027772,
Celebs/45_Will_Smith_0010.jpg,non_target,2,0,2,0,0,98,98,69,,,,,,,,,,,,483.6474988999835,483.6474988999835,484.1481486999837,,,,,,1,006,21,Sentado,2023-06-17_12h42.29.068,face_recognition_ERP_protocol,2022.2.5,59.93525794027772,
Celebs/51_Jackie_Chan_0006.jpg,non_target,2,0,2,0,0,99,99,97,,,,,,,,,,,,484.64850149999256,484.64850149999256,485.14919519997784,,,,,,1,006,21,Sentado,2023-06-17_12h42.29.068,face_recognition_ERP_protocol,2022.2.5,59.93525794027772,
Celebs/45_Will_Smith_0014.jpg,non_target,2,0,2,0,0,100,100,59,,,,,,,,,,,,485.6500645999913,485.6500645999913,486.1503783999942,,,,,,1,006,21,Sentado,2023-06-17_12h42.29.068,face_recognition_ERP_protocol,2022.2.5,59.93525794027772,
Celebs/19_Margot_Robbie_0004.jpg,non_target,2,0,2,0,0,101,101,42,,,,,,,,,,,,486.65082179999445,486.65082179999445,487.15139329998055,,,,,,1,006,21,Sentado,2023-06-17_12h42.29.068,face_recognition_ERP_protocol,2022.2.5,59.93525794027772,
Celebs/44_Will_Smith_0006.jpg,non_target,2,0,2,0,0,102,102,41,,,,,,,,,,,,487.65195059997495,487.65195059997495,488.15260309999576,,,,,,1,006,21,Sentado,2023-06-17_12h42.29.068,face_recognition_ERP_protocol,2022.2.5,59.93525794027772,
Celebs/22_Emma_Stone_0013.jpg,non_target,2,0,2,0,0,103,103,1,,,,,,,,,,,,488.65291459998116,488.65291459998116,489.1536187999882,,,,,,1,006,21,Sentado,2023-06-17_12h42.29.068,face_recognition_ERP_protocol,2022.2.5,59.93525794027772,
Celebs/36_Jim_Parsons_0011.jpg,non_target,2,0,2,0,0,104,104,86,,,,,,,,,,,,489.6548316999979,489.6548316999979,490.1546967999893,,,,,,1,006,21,Sentado,2023-06-17_12h42.29.068,face_recognition_ERP_protocol,2022.2.5,59.93525794027772,
Celebs/22_Emma_Watson_0010.jpg,non_target,2,0,2,0,0,105,105,11,,,,,,,,,,,,490.65544469997985,490.65544469997985,491.15579859999707,,,,,,1,006,21,Sentado,2023-06-17_12h42.29.068,face_recognition_ERP_protocol,2022.2.5,59.93525794027772,
Celebs/39_Neil_Patrick_Harris_0001.jpg,non_target,2,0,2,0,0,106,106,4,,,,,,,,,,,,491.65610569997807,491.65610569997807,492.15686949997325,,,,,,1,006,21,Sentado,2023-06-17_12h42.29.068,face_recognition_ERP_protocol,2022.2.5,59.93525794027772,
Celebs/29_Scarlett_Johansson_0010.jpg,non_target,2,0,2,0,0,107,107,85,,,,,,,,,,,,492.65746180000133,492.65746180000133,493.1579839999904,,,,,,1,006,21,Sentado,2023-06-17_12h42.29.068,face_recognition_ERP_protocol,2022.2.5,59.93525794027772,
Celebs/36_Neil_Patrick_Harris_0007.jpg,non_target,2,0,2,0,0,108,108,5,,,,,,,,,,,,493.6583270999836,493.6583270999836,494.1590937000001,,,,,,1,006,21,Sentado,2023-06-17_12h42.29.068,face_recognition_ERP_protocol,2022.2.5,59.93525794027772,
Celebs/36_Neil_Patrick_Harris_0010.jpg,non_target,2,0,2,0,0,109,109,79,,,,,,,,,,,,494.64277639999636,494.64277639999636,495.1434887999785,,,,,,1,006,21,Sentado,2023-06-17_12h42.29.068,face_recognition_ERP_protocol,2022.2.5,59.93525794027772,
Celebs/48_Johnny_Depp_0003.jpg,non_target,2,0,2,0,0,110,110,55,,,,,,,,,,,,495.6441555999918,495.6441555999918,496.1445920999977,,,,,,1,006,21,Sentado,2023-06-17_12h42.29.068,face_recognition_ERP_protocol,2022.2.5,59.93525794027772,
Celebs/48_Johnny_Depp_0001.jpg,non_target,2,0,2,0,0,111,111,106,,,,,,,,,,,,496.6450574999908,496.6450574999908,497.1456588000001,,,,,,1,006,21,Sentado,2023-06-17_12h42.29.068,face_recognition_ERP_protocol,2022.2.5,59.93525794027772,
Celebs/21_Daniel_Radcliffe_0002.jpg,target,2,0,2,0,0,112,112,60,,,,,,,,,,,,497.64618799998425,497.64618799998425,498.1467428999895,,,,,,1,006,21,Sentado,2023-06-17_12h42.29.068,face_recognition_ERP_protocol,2022.2.5,59.93525794027772,
Celebs/49_Johnny_Depp_0013.jpg,non_target,2,0,2,0,0,113,113,33,,,,,,,,,,,,498.6472015999898,498.6472015999898,499.14784069999587,,,,,,1,006,21,Sentado,2023-06-17_12h42.29.068,face_recognition_ERP_protocol,2022.2.5,59.93525794027772,
Celebs/21_Emma_Stone_0002.jpg,non_target,2,0,2,0,0,114,114,103,,,,,,,,,,,,499.6485437999945,499.6485437999945,500.14888129997416,,,,,,1,006,21,Sentado,2023-06-17_12h42.29.068,face_recognition_ERP_protocol,2022.2.5,59.93525794027772,
Celebs/38_Will_Smith_0013.jpg,non_target,2,0,2,0,0,115,115,13,,,,,,,,,,,,500.6497810999863,500.6497810999863,501.1500332999858,,,,,,1,006,21,Sentado,2023-06-17_12h42.29.068,face_recognition_ERP_protocol,2022.2.5,59.93525794027772,
Celebs/50_Johnny_Depp_0004.jpg,non_target,2,0,2,0,0,116,116,39,,,,,,,,,,,,501.65083109997795,501.65083109997795,502.1511577999918,,,,,,1,006,21,Sentado,2023-06-17_12h42.29.068,face_recognition_ERP_protocol,2022.2.5,59.93525794027772,
Celebs/18_Daniel_Radcliffe_0008.jpg,target,2,0,2,0,0,117,117,28,,,,,,,,,,,,502.6516076999833,502.6516076999833,503.1522244999942,,,,,,1,006,21,Sentado,2023-06-17_12h42.29.068,face_recognition_ERP_protocol,2022.2.5,59.93525794027772,
Celebs/22_Margot_Robbie_0010.jpg,non_target,2,0,2,0,0,118,118,18,,,,,,,,,,,,503.65295889999834,503.65295889999834,504.15329259997816,,,,,,1,006,21,Sentado,2023-06-17_12h42.29.068,face_recognition_ERP_protocol,2022.2.5,59.93525794027772,
Celebs/18_Daniel_Radcliffe_0002.jpg,target,2,0,2,0,0,119,119,119,,,,,,,,,,,,504.65399009999237,504.65399009999237,505.1544406999892,,,,,,1,006,21,Sentado,2023-06-17_12h42.29.068,face_recognition_ERP_protocol,2022.2.5,59.93525794027772,
Celebs/43_Will_Smith_0010.jpg,non_target,3,0,3,0,0,0,0,22,,,,,,,,,,,,513.4300692999968,513.4300692999968,513.8807275999861,505.65491589999874,505.65491589999874,space,7.689996500004781,,1,006,21,Sentado,2023-06-17_12h42.29.068,face_recognition_ERP_protocol,2022.2.5,59.93525794027772,
Celebs/55_Jackie_Chan_0003.jpg,non_target,3,0,3,0,0,1,1,29,,,,,,,,,,,,514.3816702999757,514.3816702999757,514.8820018999977,,,,,,1,006,21,Sentado,2023-06-17_12h42.29.068,face_recognition_ERP_protocol,2022.2.5,59.93525794027772,
Celebs/50_Johnny_Depp_0010.jpg,non_target,3,0,3,0,0,2,2,115,,,,,,,,,,,,515.3822445999831,515.3822445999831,515.8828517999791,,,,,,1,006,21,Sentado,2023-06-17_12h42.29.068,face_recognition_ERP_protocol,2022.2.5,59.93525794027772,
Celebs/25_Scarlett_Johansson_0010.jpg,non_target,3,0,3,0,0,3,3,32,,,,,,,,,,,,516.3851203999948,516.3851203999948,516.8709460999817,,,,,,1,006,21,Sentado,2023-06-17_12h42.29.068,face_recognition_ERP_protocol,2022.2.5,59.93525794027772,
Celebs/39_Jim_Parsons_0001.jpg,non_target,3,0,3,0,0,4,4,49,,,,,,,,,,,,517.3848278999794,517.3848278999794,517.8686516000016,,,,,,1,006,21,Sentado,2023-06-17_12h42.29.068,face_recognition_ERP_protocol,2022.2.5,59.93525794027772,
Celebs/39_Jim_Parsons_0010.jpg,non_target,3,0,3,0,0,5,5,0,,,,,,,,,,,,518.3711600999814,518.3711600999814,518.8734594999987,,,,,,1,006,21,Sentado,2023-06-17_12h42.29.068,face_recognition_ERP_protocol,2022.2.5,59.93525794027772,
Celebs/21_Daniel_Radcliffe_0002.jpg,target,3,0,3,0,0,6,6,60,,,,,,,,,,,,519.3868060999957,519.3868060999957,519.8704618999909,,,,,,1,006,21,Sentado,2023-06-17_12h42.29.068,face_recognition_ERP_protocol,2022.2.5,59.93525794027772,
Celebs/38_Jim_Parsons_0003.jpg,non_target,3,0,3,0,0,7,7,53,,,,,,,,,,,,520.3729539999913,520.3729539999913,520.8756341999979,,,,,,1,006,21,Sentado,2023-06-17_12h42.29.068,face_recognition_ERP_protocol,2022.2.5,59.93525794027772,
Celebs/36_Jim_Parsons_0011.jpg,non_target,3,0,3,0,0,8,8,86,,,,,,,,,,,,521.3889066999836,521.3889066999836,521.8727997999813,,,,,,1,006,21,Sentado,2023-06-17_12h42.29.068,face_recognition_ERP_protocol,2022.2.5,59.93525794027772,
Celebs/45_Johnny_Depp_0003.jpg,non_target,3,0,3,0,0,9,9,108,,,,,,,,,,,,522.3736892999732,522.3736892999732,522.874210799986,,,,,,1,006,21,Sentado,2023-06-17_12h42.29.068,face_recognition_ERP_protocol,2022.2.5,59.93525794027772,
Celebs/15_Margot_Robbie_0005.jpg,non_target,3,0,3,0,0,10,10,80,,,,,,,,,,,,523.376465999987,523.376465999987,523.8789369000006,,,,,,1,006,21,Sentado,2023-06-17_12h42.29.068,face_recognition_ERP_protocol,2022.2.5,59.93525794027772,
Celebs/44_Will_Smith_0015.jpg,non_target,3,0,3,0,0,11,11,101,,,,,,,,,,,,524.3804108999902,524.3804108999902,524.8797894999734,,,,,,1,006,21,Sentado,2023-06-17_12h42.29.068,face_recognition_ERP_protocol,2022.2.5,59.93525794027772,
Celebs/58_Jackie_Chan_0005.jpg,non_target,3,0,3,0,0,12,12,3,,,,,,,,,,,,525.3934590999852,525.3934590999852,525.8773598999833,,,,,,1,006,21,Sentado,2023-06-17_12h42.29.068,face_recognition_ERP_protocol,2022.2.5,59.93525794027772,
Celebs/50_Jackie_Chan_0012.jpg,non_target,3,0,3,0,0,13,13,43,,,,,,,,,,,,526.3788222000003,526.3788222000003,526.8783112999809,,,,,,1,006,21,Sentado,2023-06-17_12h42.29.068,face_recognition_ERP_protocol,2022.2.5,59.93525794027772,
Celebs/36_Neil_Patrick_Harris_0007.jpg,non_target,3,0,3,0,0,14,14,5,,,,,,,,,,,,527.381198099989,527.381198099989,527.8833891999966,,,,,,1,006,21,Sentado,2023-06-17_12h42.29.068,face_recognition_ERP_protocol,2022.2.5,59.93525794027772,
Celebs/39_Jim_Parsons_0004.jpg,non_target,3,0,3,0,0,15,15,88,,,,,,,,,,,,528.3845064999769,528.3845064999769,528.8676480999857,,,,,,1,006,21,Sentado,2023-06-17_12h42.29.068,face_recognition_ERP_protocol,2022.2.5,59.93525794027772,
Celebs/50_Johnny_Depp_0008.jpg,non_target,3,0,3,0,0,16,16,84,,,,,,,,,,,,529.3688989999937,529.3688989999937,529.8687053999747,,,,,,1,006,21,Sentado,2023-06-17_12h42.29.068,face_recognition_ERP_protocol,2022.2.5,59.93525794027772,
Celebs/50_Johnny_Depp_0018.jpg,non_target,3,0,3,0,0,17,17,24,,,,,,,,,,,,530.3700208999799,530.3700208999799,530.8698327999737,,,,,,1,006,21,Sentado,2023-06-17_12h42.29.068,face_recognition_ERP_protocol,2022.2.5,59.93525794027772,
Celebs/39_Neil_Patrick_Harris_0010.jpg,non_target,3,0,3,0,0,18,18,94,,,,,,,,,,,,531.3711033999862,531.3711033999862,531.8709364999959,,,,,,1,006,21,Sentado,2023-06-17_12h42.29.068,face_recognition_ERP_protocol,2022.2.5,59.93525794027772,
Celebs/32_Jim_Parsons_0010.jpg,non_target,3,0,3,0,0,19,19,98,,,,,,,,,,,,532.3722598999739,532.3722598999739,532.8719922000018,,,,,,1,006,21,Sentado,2023-06-17_12h42.29.068,face_recognition_ERP_protocol,2022.2.5,59.93525794027772,
Celebs/55_Jackie_Chan_0015.jpg,non_target,3,0,3,0,0,20,20,30,,,,,,,,,,,,533.3733398999902,533.3733398999902,533.873056499986,,,,,,1,006,21,Sentado,2023-06-17_12h42.29.068,face_recognition_ERP_protocol,2022.2.5,59.93525794027772,
Celebs/37_Will_Smith_0015.jpg,non_target,3,0,3,0,0,21,21,113,,,,,,,,,,,,534.3862752999994,534.3862752999994,534.8710328999732,,,,,,1,006,21,Sentado,2023-06-17_12h42.29.068,face_recognition_ERP_protocol,2022.2.5,59.93525794027772,
Celebs/16_Emma_Stone_0008.jpg,non_target,3,0,3,0,0,22,22,48,,,,,,,,,,,,535.3715281999903,535.3715281999903,535.8712987999897,,,,,,1,006,21,Sentado,2023-06-17_12h42.29.068,face_recognition_ERP_protocol,2022.2.5,59.93525794027772,
Celebs/57_Jackie_Chan_0008.jpg,non_target,3,0,3,0,0,23,23,72,,,,,,,,,,,,536.3724464999977,536.3724464999977,536.8723667000013,,,,,,1,006,21,Sentado,2023-06-17_12h42.29.068,face_recognition_ERP_protocol,2022.2.5,59.93525794027772,
Celebs/48_Johnny_Depp_0003.jpg,non_target,3,0,3,0,0,24,24,55,,,,,,,,,,,,537.3731109999935,537.3731109999935,537.8735209000006,,,,,,1,006,21,Sentado,2023-06-17_12h42.29.068,face_recognition_ERP_protocol,2022.2.5,59.93525794027772,
Celebs/20_Margot_Robbie_0004.jpg,non_target,3,0,3,0,0,25,25,116,,,,,,,,,,,,538.3739204999874,538.3739204999874,538.8746771999868,,,,,,1,006,21,Sentado,2023-06-17_12h42.29.068,face_recognition_ERP_protocol,2022.2.5,59.93525794027772,
Celebs/39_Neil_Patrick_Harris_0001.jpg,non_target,3,0,3,0,0,26,26,4,,,,,,,,,,,,539.3917782999924,539.3917782999924,539.8757101999945,,,,,,1,006,21,Sentado,2023-06-17_12h42.29.068,face_recognition_ERP_protocol,2022.2.5,59.93525794027772,
Celebs/33_Jim_Parsons_0011.jpg,non_target,3,0,3,0,0,27,27,34,,,,,,,,,,,,540.3760125999979,540.3760125999979,540.8768263999955,,,,,,1,006,21,Sentado,2023-06-17_12h42.29.068,face_recognition_ERP_protocol,2022.2.5,59.93525794027772,
Celebs/31_Neil_Patrick_Harris_0008.jpg,non_target,3,0,3,0,0,28,28,99,,,,,,,,,,,,541.3940366999886,541.3940366999886,541.8778925999941,,,,,,1,006,21,Sentado,2023-06-17_12h42.29.068,face_recognition_ERP_protocol,2022.2.5,59.93525794027772,
Celebs/16_Emma_Stone_0010.jpg,non_target,3,0,3,0,0,29,29,95,,,,,,,,,,,,542.3783583999902,542.3783583999902,542.8790189999854,,,,,,1,006,21,Sentado,2023-06-17_12h42.29.068,face_recognition_ERP_protocol,2022.2.5,59.93525794027772,
Celebs/23_Daniel_Radcliffe_0019.jpg,target,3,0,3,0,0,30,30,6,,,,,,,,,,,,543.3796147999819,543.3796147999819,543.8800562999968,,,,,,1,006,21,Sentado,2023-06-17_12h42.29.068,face_recognition_ERP_protocol,2022.2.5,59.93525794027772,
Celebs/26_Scarlett_Johansson_0003.jpg,non_target,3,0,3,0,0,31,31,105,,,,,,,,,,,,544.3804072999919,544.3804072999919,544.8812312999798,,,,,,1,006,21,Sentado,2023-06-17_12h42.29.068,face_recognition_ERP_protocol,2022.2.5,59.93525794027772,
Celebs/20_Scarlett_Johansson_0011.jpg,non_target,3,0,3,0,0,32,32,109,,,,,,,,,,,,545.3816111999913,545.3816111999913,545.882322599995,,,,,,1,006,21,Sentado,2023-06-17_12h42.29.068,face_recognition_ERP_protocol,2022.2.5,59.93525794027772,
Celebs/22_Emma_Watson_0001.jpg,non_target,3,0,3,0,0,33,33,58,,,,,,,,,,,,546.3826759999793,546.3826759999793,546.8833724999859,,,,,,1,006,21,Sentado,2023-06-17_12h42.29.068,face_recognition_ERP_protocol,2022.2.5,59.93525794027772,
Celebs/35_Neil_Patrick_Harris_0009.jpg,non_target,3,0,3,0,0,34,34,87,,,,,,,,,,,,547.3836972999852,547.3836972999852,547.8677028999955,,,,,,1,006,21,Sentado,2023-06-17_12h42.29.068,face_recognition_ERP_protocol,2022.2.5,59.93525794027772,
Celebs/22_Margot_Robbie_0010.jpg,non_target,3,0,3,0,0,35,35,18,,,,,,,,,,,,548.3695338999969,548.3695338999969,548.8688777999778,,,,,,1,006,21,Sentado,2023-06-17_12h42.29.068,face_recognition_ERP_protocol,2022.2.5,59.93525794027772,
Celebs/57_Jackie_Chan_0010.jpg,non_target,3,0,3,0,0,36,36,62,,,,,,,,,,,,549.3695078999735,549.3695078999735,549.8699643999862,,,,,,1,006,21,Sentado,2023-06-17_12h42.29.068,face_recognition_ERP_protocol,2022.2.5,59.93525794027772,
Celebs/32_Jim_Parsons_0016.jpg,non_target,3,0,3,0,0,37,37,102,,,,,,,,,,,,550.3704725999851,550.3704725999851,550.8710769999889,,,,,,1,006,21,Sentado,2023-06-17_12h42.29.068,face_recognition_ERP_protocol,2022.2.5,59.93525794027772,
Celebs/18_Emma_Stone_0016.jpg,non_target,3,0,3,0,0,38,38,52,,,,,,,,,,,,551.3713991999975,551.3713991999975,551.8721769999829,,,,,,1,006,21,Sentado,2023-06-17_12h42.29.068,face_recognition_ERP_protocol,2022.2.5,59.93525794027772,
Celebs/36_Neil_Patrick_Harris_0010.jpg,non_target,3,0,3,0,0,39,39,79,,,,,,,,,,,,552.3724929000018,552.3724929000018,552.8732905999932,,,,,,1,006,21,Sentado,2023-06-17_12h42.29.068,face_recognition_ERP_protocol,2022.2.5,59.93525794027772,
Celebs/48_Johnny_Depp_0001.jpg,non_target,3,0,3,0,0,40,40,106,,,,,,,,,,,,553.3737816999783,553.3737816999783,553.8743266999954,,,,,,1,006,21,Sentado,2023-06-17_12h42.29.068,face_recognition_ERP_protocol,2022.2.5,59.93525794027772,
Celebs/33_Neil_Patrick_Harris_0011.jpg,non_target,3,0,3,0,0,41,41,112,,,,,,,,,,,,554.3754498999915,554.3754498999915,554.8755470999749,,,,,,1,006,21,Sentado,2023-06-17_12h42.29.068,face_recognition_ERP_protocol,2022.2.5,59.93525794027772,
Celebs/14_Emma_Watson_0008.jpg,non_target,3,0,3,0,0,42,42,36,,,,,,,,,,,,555.3763438999886,555.3763438999886,555.8765824000002,,,,,,1,006,21,Sentado,2023-06-17_12h42.29.068,face_recognition_ERP_protocol,2022.2.5,59.93525794027772,
Celebs/17_Margot_Robbie_0006.jpg,non_target,3,0,3,0,0,43,43,17,,,,,,,,,,,,556.3770745999936,556.3770745999936,556.8776400999923,,,,,,1,006,21,Sentado,2023-06-17_12h42.29.068,face_recognition_ERP_protocol,2022.2.5,59.93525794027772,
Celebs/14_Emma_Watson_0005.jpg,non_target,3,0,3,0,0,44,44,26,,,,,,,,,,,,557.3780954999966,557.3780954999966,557.8787437999854,,,,,,1,006,21,Sentado,2023-06-17_12h42.29.068,face_recognition_ERP_protocol,2022.2.5,59.93525794027772,
Celebs/17_Margot_Robbie_0012.jpg,non_target,3,0,3,0,0,45,45,67,,,,,,,,,,,,558.3796551999985,558.3796551999985,558.87984769998,,,,,,1,006,21,Sentado,2023-06-17_12h42.29.068,face_recognition_ERP_protocol,2022.2.5,59.93525794027772,
Celebs/37_Neil_Patrick_Harris_0014.jpg,non_target,3,0,3,0,0,46,46,37,,,,,,,,,,,,559.3803807999939,559.3803807999939,559.8809217999806,,,,,,1,006,21,Sentado,2023-06-17_12h42.29.068,face_recognition_ERP_protocol,2022.2.5,59.93525794027772,
Celebs/14_Emma_Watson_0004.jpg,non_target,3,0,3,0,0,47,47,14,,,,,,,,,,,,560.3815630999743,560.3815630999743,560.8820663999941,,,,,,1,006,21,Sentado,2023-06-17_12h42.29.068,face_recognition_ERP_protocol,2022.2.5,59.93525794027772,
Celebs/48_Johnny_Depp_0005.jpg,non_target,3,0,3,0,0,48,48,54,,,,,,,,,,,,561.3822747999802,561.3822747999802,561.8830740999838,,,,,,1,006,21,Sentado,2023-06-17_12h42.29.068,face_recognition_ERP_protocol,2022.2.5,59.93525794027772,
Celebs/23_Daniel_Radcliffe_0010.jpg,target,3,0,3,0,0,49,49,15,,,,,,,,,,,,562.3835085999744,562.3835085999744,562.8674865999783,,,,,,1,006,21,Sentado,2023-06-17_12h42.29.068,face_recognition_ERP_protocol,2022.2.5,59.93525794027772,
Celebs/23_Emma_Stone_0014.jpg,non_target,3,0,3,0,0,50,50,12,,,,,,,,,,,,563.3676955999981,563.3676955999981,563.8686497999879,,,,,,1,006,21,Sentado,2023-06-17_12h42.29.068,face_recognition_ERP_protocol,2022.2.5,59.93525794027772,
Celebs/40_Jim_Parsons_0004.jpg,non_target,3,0,3,0,0,51,51,73,,,,,,,,,,,,564.3691282999935,564.3691282999935,564.8697417999792,,,,,,1,006,21,Sentado,2023-06-17_12h42.29.068,face_recognition_ERP_protocol,2022.2.5,59.93525794027772,
Celebs/19_Emma_Stone_0006.jpg,non_target,3,0,3,0,0,52,52,66,,,,,,,,,,,,565.3705661999993,565.3705661999993,565.8708044999803,,,,,,1,006,21,Sentado,2023-06-17_12h42.29.068,face_recognition_ERP_protocol,2022.2.5,59.93525794027772,
Celebs/21_Daniel_Radcliffe_0009.jpg,target,3,0,3,0,0,53,53,83,,,,,,,,,,,,566.3715590999927,566.3715590999927,566.8719111999962,,,,,,1,006,21,Sentado,2023-06-17_12h42.29.068,face_recognition_ERP_protocol,2022.2.5,59.93525794027772,
Celebs/20_Margot_Robbie_0006.jpg,non_target,3,0,3,0,0,54,54,35,,,,,,,,,,,,567.3722873999795,567.3722873999795,567.8729538999905,,,,,,1,006,21,Sentado,2023-06-17_12h42.29.068,face_recognition_ERP_protocol,2022.2.5,59.93525794027772,
Celebs/26_Scarlett_Johansson_0008.jpg,non_target,3,0,3,0,0,55,55,47,,,,,,,,,,,,568.3733509999875,568.3733509999875,568.874145299982,,,,,,1,006,21,Sentado,2023-06-17_12h42.29.068,face_recognition_ERP_protocol,2022.2.5,59.93525794027772,
Celebs/38_Neil_Patrick_Harris_0006.jpg,non_target,3,0,3,0,0,56,56,31,,,,,,,,,,,,569.3744276999787,569.3744276999787,569.8751782999898,,,,,,1,006,21,Sentado,2023-06-17_12h42.29.068,face_recognition_ERP_protocol,2022.2.5,59.93525794027772,
Celebs/54_Jackie_Chan_0014.jpg,non_target,3,0,3,0,0,57,57,111,,,,,,,,,,,,570.3760986999841,570.3760986999841,570.8762344999996,,,,,,1,006,21,Sentado,2023-06-17_12h42.29.068,face_recognition_ERP_protocol,2022.2.5,59.93525794027772,
Celebs/24_Emma_Stone_0015.jpg,non_target,3,0,3,0,0,58,58,57,,,,,,,,,,,,571.3766280999989,571.3766280999989,571.8773933999764,,,,,,1,006,21,Sentado,2023-06-17_12h42.29.068,face_recognition_ERP_protocol,2022.2.5,59.93525794027772,
Celebs/16_Emma_Stone_0012.jpg,non_target,3,0,3,0,0,59,59,70,,,,,,,,,,,,572.3777796999784,572.3777796999784,572.8784115999879,,,,,,1,006,21,Sentado,2023-06-17_12h42.29.068,face_recognition_ERP_protocol,2022.2.5,59.93525794027772,
Celebs/34_Neil_Patrick_Harris_0007.jpg,non_target,3,0,3,0,0,60,60,117,,,,,,,,,,,,573.3788817999884,573.3788817999884,573.8795886999869,,,,,,1,006,21,Sentado,2023-06-17_12h42.29.068,face_recognition_ERP_protocol,2022.2.5,59.93525794027772,
Celebs/50_Jackie_Chan_0014.jpg,non_target,3,0,3,0,0,61,61,38,,,,,,,,,,,,574.379983699997,574.379983699997,574.8806387999794,,,,,,1,006,21,Sentado,2023-06-17_12h42.29.068,face_recognition_ERP_protocol,2022.2.5,59.93525794027772,
Celebs/28_Scarlett_Johansson_0005.jpg,non_target,3,0,3,0,0,62,62,50,,,,,,,,,,,,575.3813839999784,575.3813839999784,575.8817135999852,,,,,,1,006,21,Sentado,2023-06-17_12h42.29.068,face_recognition_ERP_protocol,2022.2.5,59.93525794027772,
Celebs/45_Will_Smith_0010.jpg,non_target,3,0,3,0,0,63,63,69,,,,,,,,,,,,576.3820914999815,576.3820914999815,576.8828492999892,,,,,,1,006,21,Sentado,2023-06-17_12h42.29.068,face_recognition_ERP_protocol,2022.2.5,59.93525794027772,
