image,stimulus,trial_block.thisRepN,trial_block.thisTrialN,trial_block.thisN,trial_block.thisIndex,trials.thisRepN,trials.thisTrialN,trials.thisN,trials.thisIndex,welcome_text.started,instructions_text.started,spacebar_key.started,spacebar_key.keys,spacebar_key.rt,eye_text.started,eye_text.stopped,text.started,text.stopped,closedEyes_text.started,beep.started,closedEyes_text.stopped,trialImage.started,polygon.started,blank_text.started,trialImage.stopped,polygon.stopped,trialBlockText.started,new_trialblock.started,new_trialblock.keys,new_trialblock.rt,participant,session,age,gender,date,expName,psychopyVersion,frameRate,
,,,,,,,,,,24.230617599998368,26.232836400013184,26.232836400013184,space,1.0307090999849606,,,,,,,,,,,,,,,,,1,003,21,Male,2023-05-02_16h36.18.150,face_recognition_ERP_protocol,2022.2.5,59.91590203427807,
Celebs/24_Emma_Stone_0015.jpg,non_target,0,0,0,0,0,0,0,57,,,,,,27.283986099995673,42.28435589998844,42.28435589998844,57.284621400001924,57.284621400001924,72.28487860999594,72.28486590000102,72.35074560000794,72.35074560000794,72.80221409999649,,,,,,,1,003,21,Male,2023-05-02_16h36.18.150,face_recognition_ERP_protocol,2022.2.5,59.91590203427807,
Celebs/21_Emma_Watson_0004.jpg,non_target,0,0,0,0,0,1,1,21,,,,,,,,,,,,,73.30297469999641,73.30297469999641,73.80331320001278,,,,,,,1,003,21,Male,2023-05-02_16h36.18.150,face_recognition_ERP_protocol,2022.2.5,59.91590203427807,
Celebs/24_Scarlett_Johansson_0001.jpg,non_target,0,0,0,0,0,2,2,10,,,,,,,,,,,,,74.30393299998832,74.30393299998832,74.80440769999404,,,,,,,1,003,21,Male,2023-05-02_16h36.18.150,face_recognition_ERP_protocol,2022.2.5,59.91590203427807,
Celebs/15_Margot_Robbie_0005.jpg,non_target,0,0,0,0,0,3,3,80,,,,,,,,,,,,,75.30521769999177,75.30521769999177,75.80559350000112,,,,,,,1,003,21,Male,2023-05-02_16h36.18.150,face_recognition_ERP_protocol,2022.2.5,59.91590203427807,
Celebs/47_Johnny_Depp_0003.jpg,non_target,0,0,0,0,0,4,4,9,,,,,,,,,,,,,76.30641729998752,76.30641729998752,76.80671179998899,,,,,,,1,003,21,Male,2023-05-02_16h36.18.150,face_recognition_ERP_protocol,2022.2.5,59.91590203427807,
Celebs/50_Johnny_Depp_0004.jpg,non_target,0,0,0,0,0,5,5,39,,,,,,,,,,,,,77.30746800001361,77.30746800001361,77.80785909999395,,,,,,,1,003,21,Male,2023-05-02_16h36.18.150,face_recognition_ERP_protocol,2022.2.5,59.91590203427807,
Celebs/39_Jim_Parsons_0008.jpg,non_target,0,0,0,0,0,6,6,89,,,,,,,,,,,,,78.30853479998768,78.30853479998768,78.80895929998951,,,,,,,1,003,21,Male,2023-05-02_16h36.18.150,face_recognition_ERP_protocol,2022.2.5,59.91590203427807,
Celebs/21_Daniel_Radcliffe_0012.jpg,target,0,0,0,0,0,7,7,8,,,,,,,,,,,,,79.30972889999975,79.30972889999975,79.8104408000072,,,,,,,1,003,21,Male,2023-05-02_16h36.18.150,face_recognition_ERP_protocol,2022.2.5,59.91590203427807,
Celebs/27_Scarlett_Johansson_0012.jpg,non_target,0,0,0,0,0,8,8,78,,,,,,,,,,,,,80.31077909999294,80.31077909999294,80.81124459998682,,,,,,,1,003,21,Male,2023-05-02_16h36.18.150,face_recognition_ERP_protocol,2022.2.5,59.91590203427807,
Celebs/47_Johnny_Depp_0004.jpg,non_target,0,0,0,0,0,9,9,76,,,,,,,,,,,,,81.31215809998685,81.31215809998685,81.8123326000059,,,,,,,1,003,21,Male,2023-05-02_16h36.18.150,face_recognition_ERP_protocol,2022.2.5,59.91590203427807,
Celebs/20_Margot_Robbie_0006.jpg,non_target,0,0,0,0,0,10,10,35,,,,,,,,,,,,,82.3131318000087,82.3131318000087,82.81392310000956,,,,,,,1,003,21,Male,2023-05-02_16h36.18.150,face_recognition_ERP_protocol,2022.2.5,59.91590203427807,
Celebs/42_Will_Smith_0012.jpg,non_target,0,0,0,0,0,11,11,64,,,,,,,,,,,,,83.33109990000958,83.33109990000958,83.81463360000635,,,,,,,1,003,21,Male,2023-05-02_16h36.18.150,face_recognition_ERP_protocol,2022.2.5,59.91590203427807,
Celebs/20_Scarlett_Johansson_0011.jpg,non_target,0,0,0,0,0,12,12,109,,,,,,,,,,,,,84.31531760000507,84.31531760000507,84.81582920000073,,,,,,,1,003,21,Male,2023-05-02_16h36.18.150,face_recognition_ERP_protocol,2022.2.5,59.91590203427807,
Celebs/39_Jim_Parsons_0010.jpg,non_target,0,0,0,0,0,13,13,0,,,,,,,,,,,,,85.32350969998515,85.32350969998515,85.8168316000083,,,,,,,1,003,21,Male,2023-05-02_16h36.18.150,face_recognition_ERP_protocol,2022.2.5,59.91590203427807,
Celebs/26_Scarlett_Johansson_0003.jpg,non_target,0,0,0,0,0,14,14,105,,,,,,,,,,,,,86.32340759999352,86.32340759999352,86.81801540000015,,,,,,,1,003,21,Male,2023-05-02_16h36.18.150,face_recognition_ERP_protocol,2022.2.5,59.91590203427807,
Celebs/32_Jim_Parsons_0010.jpg,non_target,0,0,0,0,0,15,15,98,,,,,,,,,,,,,87.32483769999817,87.32483769999817,87.80251129998942,,,,,,,1,003,21,Male,2023-05-02_16h36.18.150,face_recognition_ERP_protocol,2022.2.5,59.91590203427807,
Celebs/38_Neil_Patrick_Harris_0006.jpg,non_target,0,0,0,0,0,16,16,31,,,,,,,,,,,,,88.31152499999735,88.31152499999735,88.80374460000894,,,,,,,1,003,21,Male,2023-05-02_16h36.18.150,face_recognition_ERP_protocol,2022.2.5,59.91590203427807,
Celebs/16_Margot_Robbie_0009.jpg,non_target,0,0,0,0,0,17,17,107,,,,,,,,,,,,,89.31269500000053,89.31269500000053,89.80470790000982,,,,,,,1,003,21,Male,2023-05-02_16h36.18.150,face_recognition_ERP_protocol,2022.2.5,59.91590203427807,
Celebs/45_Will_Smith_0014.jpg,non_target,0,0,0,0,0,18,18,59,,,,,,,,,,,,,90.3134335000068,90.3134335000068,90.80595340000582,,,,,,,1,003,21,Male,2023-05-02_16h36.18.150,face_recognition_ERP_protocol,2022.2.5,59.91590203427807,
Celebs/44_Will_Smith_0006.jpg,non_target,0,0,0,0,0,19,19,41,,,,,,,,,,,,,91.3065510999877,91.3065510999877,91.80692490001093,,,,,,,1,003,21,Male,2023-05-02_16h36.18.150,face_recognition_ERP_protocol,2022.2.5,59.91590203427807,
Celebs/36_Neil_Patrick_Harris_0007.jpg,non_target,0,0,0,0,0,20,20,5,,,,,,,,,,,,,92.31583959999261,92.31583959999261,92.80807979998644,,,,,,,1,003,21,Male,2023-05-02_16h36.18.150,face_recognition_ERP_protocol,2022.2.5,59.91590203427807,
Celebs/15_Margot_Robbie_0012.jpg,non_target,0,0,0,0,0,21,21,82,,,,,,,,,,,,,93.3165069000097,93.3165069000097,93.80917759999284,,,,,,,1,003,21,Male,2023-05-02_16h36.18.150,face_recognition_ERP_protocol,2022.2.5,59.91590203427807,
Celebs/45_Will_Smith_0010.jpg,non_target,0,0,0,0,0,22,22,69,,,,,,,,,,,,,94.30999839998549,94.30999839998549,94.8103134999983,,,,,,,1,003,21,Male,2023-05-02_16h36.18.150,face_recognition_ERP_protocol,2022.2.5,59.91590203427807,
Celebs/55_Jackie_Chan_0008.jpg,non_target,0,0,0,0,0,23,23,92,,,,,,,,,,,,,95.31105160000152,95.31105160000152,95.8114166999876,,,,,,,1,003,21,Male,2023-05-02_16h36.18.150,face_recognition_ERP_protocol,2022.2.5,59.91590203427807,
Celebs/17_Margot_Robbie_0014.jpg,non_target,0,0,0,0,0,24,24,114,,,,,,,,,,,,,96.31223459998728,96.31223459998728,96.81261190000805,,,,,,,1,003,21,Male,2023-05-02_16h36.18.150,face_recognition_ERP_protocol,2022.2.5,59.91590203427807,
Celebs/50_Jackie_Chan_0014.jpg,non_target,0,0,0,0,0,25,25,38,,,,,,,,,,,,,97.31988450000063,97.31988450000063,97.81380619999254,,,,,,,1,003,21,Male,2023-05-02_16h36.18.150,face_recognition_ERP_protocol,2022.2.5,59.91590203427807,
Celebs/22_Scarlett_Johansson_0005.jpg,non_target,0,0,0,0,0,26,26,44,,,,,,,,,,,,,98.32195599999977,98.32195599999977,98.81491059999098,,,,,,,1,003,21,Male,2023-05-02_16h36.18.150,face_recognition_ERP_protocol,2022.2.5,59.91590203427807,
Celebs/18_Emma_Watson_0004.jpg,non_target,0,0,0,0,0,27,27,75,,,,,,,,,,,,,99.31581550001283,99.31581550001283,99.8160191999923,,,,,,,1,003,21,Male,2023-05-02_16h36.18.150,face_recognition_ERP_protocol,2022.2.5,59.91590203427807,
Celebs/37_Neil_Patrick_Harris_0014.jpg,non_target,0,0,0,0,0,28,28,37,,,,,,,,,,,,,100.32420360000106,100.32420360000106,100.81715610000538,,,,,,,1,003,21,Male,2023-05-02_16h36.18.150,face_recognition_ERP_protocol,2022.2.5,59.91590203427807,
Celebs/21_Margot_Robbie_0003.jpg,non_target,0,0,0,0,0,29,29,27,,,,,,,,,,,,,101.32598590000998,101.32598590000998,101.81832379999105,,,,,,,1,003,21,Male,2023-05-02_16h36.18.150,face_recognition_ERP_protocol,2022.2.5,59.91590203427807,
Celebs/24_Daniel_Radcliffe_0017.jpg,target,0,0,0,0,0,30,30,71,,,,,,,,,,,,,102.32714859998669,102.32714859998669,102.8027662000095,,,,,,,1,003,21,Male,2023-05-02_16h36.18.150,face_recognition_ERP_protocol,2022.2.5,59.91590203427807,
Celebs/32_Jim_Parsons_0016.jpg,non_target,0,0,0,0,0,31,31,102,,,,,,,,,,,,,103.30354150000494,103.30354150000494,103.80389919999288,,,,,,,1,003,21,Male,2023-05-02_16h36.18.150,face_recognition_ERP_protocol,2022.2.5,59.91590203427807,
Celebs/45_Johnny_Depp_0003.jpg,non_target,0,0,0,0,0,32,32,108,,,,,,,,,,,,,104.31113389998791,104.31113389998791,104.80497349999496,,,,,,,1,003,21,Male,2023-05-02_16h36.18.150,face_recognition_ERP_protocol,2022.2.5,59.91590203427807,
Celebs/18_Daniel_Radcliffe_0008.jpg,target,0,0,0,0,0,33,33,28,,,,,,,,,,,,,105.32221350001055,105.32221350001055,105.80614259999129,,,,,,,1,003,21,Male,2023-05-02_16h36.18.150,face_recognition_ERP_protocol,2022.2.5,59.91590203427807,
Celebs/24_Scarlett_Johansson_0011.jpg,non_target,0,0,0,0,0,34,34,100,,,,,,,,,,,,,106.31306899999618,106.31306899999618,106.80720370000927,,,,,,,1,003,21,Male,2023-05-02_16h36.18.150,face_recognition_ERP_protocol,2022.2.5,59.91590203427807,
Celebs/50_Johnny_Depp_0010.jpg,non_target,0,0,0,0,0,35,35,115,,,,,,,,,,,,,107.31578229999286,107.31578229999286,107.80836130000534,,,,,,,1,003,21,Male,2023-05-02_16h36.18.150,face_recognition_ERP_protocol,2022.2.5,59.91590203427807,
Celebs/22_Emma_Stone_0013.jpg,non_target,0,0,0,0,0,36,36,1,,,,,,,,,,,,,108.31879950000439,108.31879950000439,108.80947969999397,,,,,,,1,003,21,Male,2023-05-02_16h36.18.150,face_recognition_ERP_protocol,2022.2.5,59.91590203427807,
Celebs/19_Emma_Stone_0006.jpg,non_target,0,0,0,0,0,37,37,66,,,,,,,,,,,,,109.31023719999939,109.31023719999939,109.81144910000148,,,,,,,1,003,21,Male,2023-05-02_16h36.18.150,face_recognition_ERP_protocol,2022.2.5,59.91590203427807,
Celebs/18_Emma_Stone_0016.jpg,non_target,0,0,0,0,0,38,38,52,,,,,,,,,,,,,110.31926849999581,110.31926849999581,110.8117590000038,,,,,,,1,003,21,Male,2023-05-02_16h36.18.150,face_recognition_ERP_protocol,2022.2.5,59.91590203427807,
Celebs/39_Jim_Parsons_0004.jpg,non_target,0,0,0,0,0,39,39,88,,,,,,,,,,,,,111.31832019999274,111.31832019999274,111.81291440001223,,,,,,,1,003,21,Male,2023-05-02_16h36.18.150,face_recognition_ERP_protocol,2022.2.5,59.91590203427807,
Celebs/23_Daniel_Radcliffe_0002.jpg,target,0,0,0,0,0,40,40,77,,,,,,,,,,,,,112.32166240000515,112.32166240000515,112.8140071000089,,,,,,,1,003,21,Male,2023-05-02_16h36.18.150,face_recognition_ERP_protocol,2022.2.5,59.91590203427807,
Celebs/43_Will_Smith_0007.jpg,non_target,0,0,0,0,0,41,41,74,,,,,,,,,,,,,113.31480210000882,113.31480210000882,113.815125299996,,,,,,,1,003,21,Male,2023-05-02_16h36.18.150,face_recognition_ERP_protocol,2022.2.5,59.91590203427807,
Celebs/40_Will_Smith_0012.jpg,non_target,0,0,0,0,0,42,42,110,,,,,,,,,,,,,114.32303639999009,114.32303639999009,114.81627589999698,,,,,,,1,003,21,Male,2023-05-02_16h36.18.150,face_recognition_ERP_protocol,2022.2.5,59.91590203427807,
Celebs/37_Will_Smith_0015.jpg,non_target,0,0,0,0,0,43,43,113,,,,,,,,,,,,,115.3251952000137,115.3251952000137,115.81750179998926,,,,,,,1,003,21,Male,2023-05-02_16h36.18.150,face_recognition_ERP_protocol,2022.2.5,59.91590203427807,
Celebs/50_Johnny_Depp_0018.jpg,non_target,0,0,0,0,0,44,44,24,,,,,,,,,,,,,116.32388829998672,116.32388829998672,116.81852369999979,,,,,,,1,003,21,Male,2023-05-02_16h36.18.150,face_recognition_ERP_protocol,2022.2.5,59.91590203427807,
Celebs/17_Daniel_Radcliffe_0007.jpg,target,0,0,0,0,0,45,45,19,,,,,,,,,,,,,117.31060019999859,117.31060019999859,117.80299590001232,,,,,,,1,003,21,Male,2023-05-02_16h36.18.150,face_recognition_ERP_protocol,2022.2.5,59.91590203427807,
Celebs/29_Scarlett_Johansson_0016.jpg,non_target,0,0,0,0,0,46,46,2,,,,,,,,,,,,,118.31387919999543,118.31387919999543,118.80419450000045,,,,,,,1,003,21,Male,2023-05-02_16h36.18.150,face_recognition_ERP_protocol,2022.2.5,59.91590203427807,
Celebs/54_Jackie_Chan_0001.jpg,non_target,0,0,0,0,0,47,47,7,,,,,,,,,,,,,119.30480380001245,119.30480380001245,119.80525219999254,,,,,,,1,003,21,Male,2023-05-02_16h36.18.150,face_recognition_ERP_protocol,2022.2.5,59.91590203427807,
Celebs/48_Johnny_Depp_0005.jpg,non_target,0,0,0,0,0,48,48,54,,,,,,,,,,,,,120.30597089999355,120.30597089999355,120.80643759999657,,,,,,,1,003,21,Male,2023-05-02_16h36.18.150,face_recognition_ERP_protocol,2022.2.5,59.91590203427807,
Celebs/21_Daniel_Radcliffe_0009.jpg,target,0,0,0,0,0,49,49,83,,,,,,,,,,,,,121.32380879999255,121.32380879999255,121.80765100001008,,,,,,,1,003,21,Male,2023-05-02_16h36.18.150,face_recognition_ERP_protocol,2022.2.5,59.91590203427807,
Celebs/33_Jim_Parsons_0011.jpg,non_target,0,0,0,0,0,50,50,34,,,,,,,,,,,,,122.31527339998866,122.31527339998866,122.8088121000037,,,,,,,1,003,21,Male,2023-05-02_16h36.18.150,face_recognition_ERP_protocol,2022.2.5,59.91590203427807,
Celebs/22_Margot_Robbie_0010.jpg,non_target,0,0,0,0,0,51,51,18,,,,,,,,,,,,,123.31641020000097,123.31641020000097,123.80975029998808,,,,,,,1,003,21,Male,2023-05-02_16h36.18.150,face_recognition_ERP_protocol,2022.2.5,59.91590203427807,
Celebs/54_Jackie_Chan_0014.jpg,non_target,0,0,0,0,0,52,52,111,,,,,,,,,,,,,124.310616200004,124.310616200004,124.81091870000819,,,,,,,1,003,21,Male,2023-05-02_16h36.18.150,face_recognition_ERP_protocol,2022.2.5,59.91590203427807,
Celebs/55_Jackie_Chan_0003.jpg,non_target,0,0,0,0,0,53,53,29,,,,,,,,,,,,,125.31164500000887,125.31164500000887,125.81201339999097,,,,,,,1,003,21,Male,2023-05-02_16h36.18.150,face_recognition_ERP_protocol,2022.2.5,59.91590203427807,
Celebs/39_Neil_Patrick_Harris_0010.jpg,non_target,0,0,0,0,0,54,54,94,,,,,,,,,,,,,126.32041839999147,126.32041839999147,126.81320470001083,,,,,,,1,003,21,Male,2023-05-02_16h36.18.150,face_recognition_ERP_protocol,2022.2.5,59.91590203427807,
Celebs/14_Emma_Watson_0004.jpg,non_target,0,0,0,0,0,55,55,14,,,,,,,,,,,,,127.32178599998588,127.32178599998588,127.81429569999455,,,,,,,1,003,21,Male,2023-05-02_16h36.18.150,face_recognition_ERP_protocol,2022.2.5,59.91590203427807,
Celebs/55_Jackie_Chan_0015.jpg,non_target,0,0,0,0,0,56,56,30,,,,,,,,,,,,,128.31531589999213,128.31531589999213,128.81549879998784,,,,,,,1,003,21,Male,2023-05-02_16h36.18.150,face_recognition_ERP_protocol,2022.2.5,59.91590203427807,
Celebs/50_Johnny_Depp_0008.jpg,non_target,0,0,0,0,0,57,57,84,,,,,,,,,,,,,129.3245908000099,129.3245908000099,129.81659209998907,,,,,,,1,003,21,Male,2023-05-02_16h36.18.150,face_recognition_ERP_protocol,2022.2.5,59.91590203427807,
Celebs/16_Emma_Stone_0012.jpg,non_target,0,0,0,0,0,58,58,70,,,,,,,,,,,,,130.32466519999434,130.32466519999434,130.8177267999854,,,,,,,1,003,21,Male,2023-05-02_16h36.18.150,face_recognition_ERP_protocol,2022.2.5,59.91590203427807,
Celebs/32_Jim_Parsons_0018.jpg,non_target,0,0,0,0,0,59,59,46,,,,,,,,,,,,,131.30213689999073,131.30213689999073,131.80218759999843,131.80218759999843,131.80218759999843,,,,,1,003,21,Male,2023-05-02_16h36.18.150,face_recognition_ERP_protocol,2022.2.5,59.91590203427807,
Celebs/23_Daniel_Radcliffe_0010.jpg,target,0,0,0,0,0,60,60,15,,,,,,,,,,,,,132.30313809998916,132.30313809998916,132.80337410001084,,,,,,,1,003,21,Male,2023-05-02_16h36.18.150,face_recognition_ERP_protocol,2022.2.5,59.91590203427807,
Celebs/52_Jackie_Chan_0002.jpg,non_target,0,0,0,0,0,61,61,68,,,,,,,,,,,,,133.3124048000027,133.3124048000027,133.80448679998517,,,,,,,1,003,21,Male,2023-05-02_16h36.18.150,face_recognition_ERP_protocol,2022.2.5,59.91590203427807,
Celebs/44_Will_Smith_0015.jpg,non_target,0,0,0,0,0,62,62,101,,,,,,,,,,,,,134.31455700000515,134.31455700000515,134.80554010000196,,,,,,,1,003,21,Male,2023-05-02_16h36.18.150,face_recognition_ERP_protocol,2022.2.5,59.91590203427807,
Celebs/34_Neil_Patrick_Harris_0004.jpg,non_target,0,0,0,0,0,63,63,104,,,,,,,,,,,,,135.3070488999947,135.3070488999947,135.80666760000167,,,,,,,1,003,21,Male,2023-05-02_16h36.18.150,face_recognition_ERP_protocol,2022.2.5,59.91590203427807,
Celebs/22_Emma_Watson_0001.jpg,non_target,0,0,0,0,0,64,64,58,,,,,,,,,,,,,136.30739030000404,136.30739030000404,136.8078486000013,,,,,,,1,003,21,Male,2023-05-02_16h36.18.150,face_recognition_ERP_protocol,2022.2.5,59.91590203427807,
Celebs/57_Jackie_Chan_0010.jpg,non_target,0,0,0,0,0,65,65,62,,,,,,,,,,,,,137.31618049999815,137.31618049999815,137.80898100000923,,,,,,,1,003,21,Male,2023-05-02_16h36.18.150,face_recognition_ERP_protocol,2022.2.5,59.91590203427807,
Celebs/39_Neil_Patrick_Harris_0001.jpg,non_target,0,0,0,0,0,66,66,4,,,,,,,,,,,,,138.3096838000056,138.3096838000056,138.81009250000352,,,,,,,1,003,21,Male,2023-05-02_16h36.18.150,face_recognition_ERP_protocol,2022.2.5,59.91590203427807,
Celebs/57_Jackie_Chan_0008.jpg,non_target,0,0,0,0,0,67,67,72,,,,,,,,,,,,,139.31795120000606,139.31795120000606,139.81122390000382,,,,,,,1,003,21,Male,2023-05-02_16h36.18.150,face_recognition_ERP_protocol,2022.2.5,59.91590203427807,
Celebs/14_Emma_Watson_0015.jpg,non_target,0,0,0,0,0,68,68,56,,,,,,,,,,,,,140.31251980000525,140.31251980000525,140.81242979998933,,,,,,,1,003,21,Male,2023-05-02_16h36.18.150,face_recognition_ERP_protocol,2022.2.5,59.91590203427807,
Celebs/39_Jim_Parsons_0001.jpg,non_target,0,0,0,0,0,69,69,49,,,,,,,,,,,,,141.31315140001243,141.31315140001243,141.81364000000758,,,,,,,1,003,21,Male,2023-05-02_16h36.18.150,face_recognition_ERP_protocol,2022.2.5,59.91590203427807,
Celebs/20_Margot_Robbie_0004.jpg,non_target,0,0,0,0,0,70,70,116,,,,,,,,,,,,,142.32247789998655,142.32247789998655,142.81476249999832,,,,,,,1,003,21,Male,2023-05-02_16h36.18.150,face_recognition_ERP_protocol,2022.2.5,59.91590203427807,
Celebs/50_Jackie_Chan_0012.jpg,non_target,0,0,0,0,0,71,71,43,,,,,,,,,,,,,143.32245119998697,143.32245119998697,143.8158848999883,,,,,,,1,003,21,Male,2023-05-02_16h36.18.150,face_recognition_ERP_protocol,2022.2.5,59.91590203427807,
Celebs/49_Johnny_Depp_0013.jpg,non_target,0,0,0,0,0,72,72,33,,,,,,,,,,,,,144.31656010000734,144.31656010000734,144.8168955000001,,,,,,,1,003,21,Male,2023-05-02_16h36.18.150,face_recognition_ERP_protocol,2022.2.5,59.91590203427807,
Celebs/14_Emma_Watson_0013.jpg,non_target,0,0,0,0,0,73,73,20,,,,,,,,,,,,,145.32458519999636,145.32458519999636,145.81794969999464,,,,,,,1,003,21,Male,2023-05-02_16h36.18.150,face_recognition_ERP_protocol,2022.2.5,59.91590203427807,
Celebs/51_Jackie_Chan_0006.jpg,non_target,0,0,0,0,0,74,74,97,,,,,,,,,,,,,146.3095789999934,146.3095789999934,146.8024252000032,,,,,,,1,003,21,Male,2023-05-02_16h36.18.150,face_recognition_ERP_protocol,2022.2.5,59.91590203427807,
Celebs/22_Emma_Watson_0003.jpg,non_target,0,0,0,0,0,75,75,91,,,,,,,,,,,,,147.31083629999193,147.31083629999193,147.80388429999584,,,,,,,1,003,21,Male,2023-05-02_16h36.18.150,face_recognition_ERP_protocol,2022.2.5,59.91590203427807,
Celebs/38_Jim_Parsons_0003.jpg,non_target,0,0,0,0,0,76,76,53,,,,,,,,,,,,,148.315978300001,148.315978300001,148.8047876000055,,,,,,,1,003,21,Male,2023-05-02_16h36.18.150,face_recognition_ERP_protocol,2022.2.5,59.91590203427807,
Celebs/17_Margot_Robbie_0006.jpg,non_target,0,0,0,0,0,77,77,17,,,,,,,,,,,,,149.30541279999306,149.30541279999306,149.80585649999557,,,,,,,1,003,21,Male,2023-05-02_16h36.18.150,face_recognition_ERP_protocol,2022.2.5,59.91590203427807,
Celebs/48_Johnny_Depp_0001.jpg,non_target,0,0,0,0,0,78,78,106,,,,,,,,,,,,,150.3066170999955,150.3066170999955,150.8069635000138,,,,,,,1,003,21,Male,2023-05-02_16h36.18.150,face_recognition_ERP_protocol,2022.2.5,59.91590203427807,
Celebs/14_Emma_Watson_0008.jpg,non_target,0,0,0,0,0,79,79,36,,,,,,,,,,,,,151.3078089999908,151.3078089999908,151.80810180000844,,,,,,,1,003,21,Male,2023-05-02_16h36.18.150,face_recognition_ERP_protocol,2022.2.5,59.91590203427807,
Celebs/21_Scarlett_Johansson_0007.jpg,non_target,0,0,0,0,0,80,80,118,,,,,,,,,,,,,152.30904100000043,152.30904100000043,152.80920049999258,,,,,,,1,003,21,Male,2023-05-02_16h36.18.150,face_recognition_ERP_protocol,2022.2.5,59.91590203427807,
Celebs/17_Margot_Robbie_0012.jpg,non_target,0,0,0,0,0,81,81,67,,,,,,,,,,,,,153.31003480000072,153.31003480000072,153.81036659999518,,,,,,,1,003,21,Male,2023-05-02_16h36.18.150,face_recognition_ERP_protocol,2022.2.5,59.91590203427807,
Celebs/26_Scarlett_Johansson_0008.jpg,non_target,0,0,0,0,0,82,82,47,,,,,,,,,,,,,154.35611849999987,154.35611849999987,154.8116342999856,,,,,,,1,003,21,Male,2023-05-02_16h36.18.150,face_recognition_ERP_protocol,2022.2.5,59.91590203427807,
Celebs/28_Scarlett_Johansson_0005.jpg,non_target,0,0,0,0,0,83,83,50,,,,,,,,,,,,,155.3205958000035,155.3205958000035,155.81277509999927,,,,,,,1,003,21,Male,2023-05-02_16h36.18.150,face_recognition_ERP_protocol,2022.2.5,59.91590203427807,
Celebs/23_Emma_Stone_0014.jpg,non_target,0,0,0,0,0,84,84,12,,,,,,,,,,,,,156.3215127000003,156.3215127000003,156.81386500000372,,,,,,,1,003,21,Male,2023-05-02_16h36.18.150,face_recognition_ERP_protocol,2022.2.5,59.91590203427807,
Celebs/18_Daniel_Radcliffe_0007.jpg,target,0,0,0,0,0,85,85,81,,,,,,,,,,,,,157.31460020001396,157.31460020001396,157.81494690000545,,,,,,,1,003,21,Male,2023-05-02_16h36.18.150,face_recognition_ERP_protocol,2022.2.5,59.91590203427807,
Celebs/40_Jim_Parsons_0015.jpg,non_target,0,0,0,0,0,86,86,45,,,,,,,,,,,,,158.3157271000091,158.3157271000091,158.8160261999874,,,,,,,1,003,21,Male,2023-05-02_16h36.18.150,face_recognition_ERP_protocol,2022.2.5,59.91590203427807,
Celebs/43_Will_Smith_0006.jpg,non_target,0,0,0,0,0,87,87,61,,,,,,,,,,,,,159.33706079999683,159.33706079999683,159.81719619999058,,,,,,,1,003,21,Male,2023-05-02_16h36.18.150,face_recognition_ERP_protocol,2022.2.5,59.91590203427807,
Celebs/21_Emma_Stone_0002.jpg,non_target,0,0,0,0,0,88,88,103,,,,,,,,,,,,,160.31793449999532,160.31793449999532,160.81829190001008,,,,,,,1,003,21,Male,2023-05-02_16h36.18.150,face_recognition_ERP_protocol,2022.2.5,59.91590203427807,
Celebs/21_Daniel_Radcliffe_0008.jpg,target,0,0,0,0,0,89,89,16,,,,,,,,,,,,,161.30835949999164,161.30835949999164,161.80271769998944,,,,,,,1,003,21,Male,2023-05-02_16h36.18.150,face_recognition_ERP_protocol,2022.2.5,59.91590203427807,
Celebs/37_Neil_Patrick_Harris_0010.jpg,non_target,0,0,0,0,0,90,90,93,,,,,,,,,,,,,162.30356820000452,162.30356820000452,162.80389619999914,,,,,,,1,003,21,Male,2023-05-02_16h36.18.150,face_recognition_ERP_protocol,2022.2.5,59.91590203427807,
Celebs/35_Neil_Patrick_Harris_0009.jpg,non_target,0,0,0,0,0,91,91,87,,,,,,,,,,,,,163.30466850000084,163.30466850000084,163.80508769999142,,,,,,,1,003,21,Male,2023-05-02_16h36.18.150,face_recognition_ERP_protocol,2022.2.5,59.91590203427807,
Celebs/34_Neil_Patrick_Harris_0007.jpg,non_target,0,0,0,0,0,92,92,117,,,,,,,,,,,,,164.31190639999113,164.31190639999113,164.8061289000034,,,,,,,1,003,21,Male,2023-05-02_16h36.18.150,face_recognition_ERP_protocol,2022.2.5,59.91590203427807,
Celebs/43_Will_Smith_0010.jpg,non_target,0,0,0,0,0,93,93,22,,,,,,,,,,,,,165.31301650000387,165.31301650000387,165.80722889999743,,,,,,,1,003,21,Male,2023-05-02_16h36.18.150,face_recognition_ERP_protocol,2022.2.5,59.91590203427807,
Celebs/16_Emma_Stone_0014.jpg,non_target,0,0,0,0,0,94,94,40,,,,,,,,,,,,,166.3141503999941,166.3141503999941,166.80836130000534,,,,,,,1,003,21,Male,2023-05-02_16h36.18.150,face_recognition_ERP_protocol,2022.2.5,59.91590203427807,
Celebs/21_Daniel_Radcliffe_0002.jpg,target,0,0,0,0,0,95,95,60,,,,,,,,,,,,,167.31648159999168,167.31648159999168,167.80952859998797,,,,,,,1,003,21,Male,2023-05-02_16h36.18.150,face_recognition_ERP_protocol,2022.2.5,59.91590203427807,
Celebs/48_Johnny_Depp_0003.jpg,non_target,0,0,0,0,0,96,96,55,,,,,,,,,,,,,168.31805179998628,168.31805179998628,168.8106198000023,,,,,,,1,003,21,Male,2023-05-02_16h36.18.150,face_recognition_ERP_protocol,2022.2.5,59.91590203427807,
Celebs/14_Emma_Watson_0005.jpg,non_target,0,0,0,0,0,97,97,26,,,,,,,,,,,,,169.31804069998907,169.31804069998907,169.81175679998705,,,,,,,1,003,21,Male,2023-05-02_16h36.18.150,face_recognition_ERP_protocol,2022.2.5,59.91590203427807,
Celebs/40_Jim_Parsons_0004.jpg,non_target,0,0,0,0,0,98,98,73,,,,,,,,,,,,,170.32055529998615,170.32055529998615,170.81287960000918,,,,,,,1,003,21,Male,2023-05-02_16h36.18.150,face_recognition_ERP_protocol,2022.2.5,59.91590203427807,
Celebs/21_Emma_Stone_0003.jpg,non_target,0,0,0,0,0,99,99,25,,,,,,,,,,,,,171.32127179999952,171.32127179999952,171.81406840001,,,,,,,1,003,21,Male,2023-05-02_16h36.18.150,face_recognition_ERP_protocol,2022.2.5,59.91590203427807,
Celebs/29_Scarlett_Johansson_0010.jpg,non_target,0,0,0,0,0,100,100,85,,,,,,,,,,,,,172.31484909998835,172.31484909998835,172.81515989999752,,,,,,,1,003,21,Male,2023-05-02_16h36.18.150,face_recognition_ERP_protocol,2022.2.5,59.91590203427807,
Celebs/19_Margot_Robbie_0004.jpg,non_target,0,0,0,0,0,101,101,42,,,,,,,,,,,,,173.32200320000993,173.32200320000993,173.81638020000537,,,,,,,1,003,21,Male,2023-05-02_16h36.18.150,face_recognition_ERP_protocol,2022.2.5,59.91590203427807,
Celebs/23_Daniel_Radcliffe_0019.jpg,target,0,0,0,0,0,102,102,6,,,,,,,,,,,,,174.3236418000015,174.3236418000015,174.81746379999095,,,,,,,1,003,21,Male,2023-05-02_16h36.18.150,face_recognition_ERP_protocol,2022.2.5,59.91590203427807,
Celebs/25_Scarlett_Johansson_0010.jpg,non_target,0,0,0,0,0,103,103,32,,,,,,,,,,,,,175.3243366999959,175.3243366999959,175.81856849999167,,,,,,,1,003,21,Male,2023-05-02_16h36.18.150,face_recognition_ERP_protocol,2022.2.5,59.91590203427807,
Celebs/16_Emma_Stone_0010.jpg,non_target,0,0,0,0,0,104,104,95,,,,,,,,,,,,,176.31017219999922,176.31017219999922,176.80306470001233,,,,,,,1,003,21,Male,2023-05-02_16h36.18.150,face_recognition_ERP_protocol,2022.2.5,59.91590203427807,
Celebs/58_Jackie_Chan_0005.jpg,non_target,0,0,0,0,0,105,105,3,,,,,,,,,,,,,177.31335270000272,177.31335270000272,177.80469610000728,,,,,,,1,003,21,Male,2023-05-02_16h36.18.150,face_recognition_ERP_protocol,2022.2.5,59.91590203427807,
Celebs/36_Neil_Patrick_Harris_0010.jpg,non_target,0,0,0,0,0,106,106,79,,,,,,,,,,,,,178.32184150000103,178.32184150000103,178.805981100013,,,,,,,1,003,21,Male,2023-05-02_16h36.18.150,face_recognition_ERP_protocol,2022.2.5,59.91590203427807,
Celebs/18_Daniel_Radcliffe_0002.jpg,target,0,0,0,0,0,107,107,119,,,,,,,,,,,,,179.31394359999103,179.31394359999103,179.80682229998638,,,,,,,1,003,21,Male,2023-05-02_16h36.18.150,face_recognition_ERP_protocol,2022.2.5,59.91590203427807,
Celebs/33_Neil_Patrick_Harris_0011.jpg,non_target,0,0,0,0,0,108,108,112,,,,,,,,,,,,,180.3570810999954,180.3570810999954,180.80751939999755,,,,,,,1,003,21,Male,2023-05-02_16h36.18.150,face_recognition_ERP_protocol,2022.2.5,59.91590203427807,
Celebs/17_Emma_Watson_0006.jpg,non_target,0,0,0,0,0,109,109,90,,,,,,,,,,,,,181.30843939998886,181.30843939998886,181.80865309998626,,,,,,,1,003,21,Male,2023-05-02_16h36.18.150,face_recognition_ERP_protocol,2022.2.5,59.91590203427807,
Celebs/19_Margot_Robbie_0001.jpg,non_target,0,0,0,0,0,110,110,51,,,,,,,,,,,,,182.3155712999869,182.3155712999869,182.80982409999706,,,,,,,1,003,21,Male,2023-05-02_16h36.18.150,face_recognition_ERP_protocol,2022.2.5,59.91590203427807,
Celebs/20_Emma_Stone_0005.jpg,non_target,0,0,0,0,0,111,111,63,,,,,,,,,,,,,183.31053230000543,183.31053230000543,183.81091770000057,,,,,,,1,003,21,Male,2023-05-02_16h36.18.150,face_recognition_ERP_protocol,2022.2.5,59.91590203427807,
Celebs/22_Emma_Watson_0010.jpg,non_target,0,0,0,0,0,112,112,11,,,,,,,,,,,,,184.3117168000026,184.3117168000026,184.81218000000808,,,,,,,1,003,21,Male,2023-05-02_16h36.18.150,face_recognition_ERP_protocol,2022.2.5,59.91590203427807,
Celebs/36_Jim_Parsons_0011.jpg,non_target,0,0,0,0,0,113,113,86,,,,,,,,,,,,,185.31306449999101,185.31306449999101,185.81320740000228,,,,,,,1,003,21,Male,2023-05-02_16h36.18.150,face_recognition_ERP_protocol,2022.2.5,59.91590203427807,
Celebs/44_Will_Smith_0007.jpg,non_target,0,0,0,0,0,114,114,65,,,,,,,,,,,,,186.32210930000292,186.32210930000292,186.8143615000008,,,,,,,1,003,21,Male,2023-05-02_16h36.18.150,face_recognition_ERP_protocol,2022.2.5,59.91590203427807,
Celebs/20_Emma_Watson_0007.jpg,non_target,0,0,0,0,0,115,115,96,,,,,,,,,,,,,187.32198410001,187.32198410001,187.81554300000425,,,,,,,1,003,21,Male,2023-05-02_16h36.18.150,face_recognition_ERP_protocol,2022.2.5,59.91590203427807,
Celebs/16_Emma_Stone_0008.jpg,non_target,0,0,0,0,0,116,116,48,,,,,,,,,,,,,188.32110920001287,188.32110920001287,188.81676350001362,,,,,,,1,003,21,Male,2023-05-02_16h36.18.150,face_recognition_ERP_protocol,2022.2.5,59.91590203427807,
Celebs/38_Will_Smith_0013.jpg,non_target,0,0,0,0,0,117,117,13,,,,,,,,,,,,,189.31744159999653,189.31744159999653,189.8177355999942,,,,,,,1,003,21,Male,2023-05-02_16h36.18.150,face_recognition_ERP_protocol,2022.2.5,59.91590203427807,
Celebs/47_Johnny_Depp_0009.jpg,non_target,0,0,0,0,0,118,118,23,,,,,,,,,,,,,190.32568660000106,190.32568660000106,190.81885519999196,,,,,,,1,003,21,Male,2023-05-02_16h36.18.150,face_recognition_ERP_protocol,2022.2.5,59.91590203427807,
Celebs/31_Neil_Patrick_Harris_0008.jpg,non_target,0,0,0,0,0,119,119,99,,,,,,,,,,,,,191.3092239999969,191.3092239999969,191.80333429999882,,,,,,,1,003,21,Male,2023-05-02_16h36.18.150,face_recognition_ERP_protocol,2022.2.5,59.91590203427807,
Celebs/39_Jim_Parsons_0008.jpg,non_target,1,0,1,0,0,0,0,89,,,,,,,,,,,,,245.48035970001365,245.48035970001365,245.96449740001117,,,192.31155159999616,192.31155159999616,space,53.109079500020016,1,003,21,Male,2023-05-02_16h36.18.150,face_recognition_ERP_protocol,2022.2.5,59.91590203427807,
Celebs/43_Will_Smith_0006.jpg,non_target,1,0,1,0,0,1,1,61,,,,,,,,,,,,,246.4652095999918,246.4652095999918,246.9658144999994,,,,,,,1,003,21,Male,2023-05-02_16h36.18.150,face_recognition_ERP_protocol,2022.2.5,59.91590203427807,
Celebs/49_Johnny_Depp_0013.jpg,non_target,1,0,1,0,0,2,2,33,,,,,,,,,,,,,247.46632840001257,247.46632840001257,247.96675640001195,,,,,,,1,003,21,Male,2023-05-02_16h36.18.150,face_recognition_ERP_protocol,2022.2.5,59.91590203427807,
Celebs/45_Johnny_Depp_0003.jpg,non_target,1,0,1,0,0,3,3,108,,,,,,,,,,,,,248.45085100000142,248.45085100000142,248.9513227000134,,,,,,,1,003,21,Male,2023-05-02_16h36.18.150,face_recognition_ERP_protocol,2022.2.5,59.91590203427807,
Celebs/37_Neil_Patrick_Harris_0014.jpg,non_target,1,0,1,0,0,4,4,37,,,,,,,,,,,,,249.45215880000615,249.45215880000615,249.95240179999382,,,,,,,1,003,21,Male,2023-05-02_16h36.18.150,face_recognition_ERP_protocol,2022.2.5,59.91590203427807,
Celebs/58_Jackie_Chan_0005.jpg,non_target,1,0,1,0,0,5,5,3,,,,,,,,,,,,,250.4533475000062,250.4533475000062,250.953566399985,,,,,,,1,003,21,Male,2023-05-02_16h36.18.150,face_recognition_ERP_protocol,2022.2.5,59.91590203427807,
Celebs/43_Will_Smith_0010.jpg,non_target,1,0,1,0,0,6,6,22,,,,,,,,,,,,,251.45447570001124,251.45447570001124,251.95472979999613,,,,,,,1,003,21,Male,2023-05-02_16h36.18.150,face_recognition_ERP_protocol,2022.2.5,59.91590203427807,
Celebs/38_Neil_Patrick_Harris_0006.jpg,non_target,1,0,1,0,0,7,7,31,,,,,,,,,,,,,252.45544099999825,252.45544099999825,252.95572970001376,,,,,,,1,003,21,Male,2023-05-02_16h36.18.150,face_recognition_ERP_protocol,2022.2.5,59.91590203427807,
Celebs/39_Jim_Parsons_0001.jpg,non_target,1,0,1,0,0,8,8,49,,,,,,,,,,,,,253.4564498999971,253.4564498999971,253.95693559999927,,,,,,,1,003,21,Male,2023-05-02_16h36.18.150,face_recognition_ERP_protocol,2022.2.5,59.91590203427807,
Celebs/42_Will_Smith_0012.jpg,non_target,1,0,1,0,0,9,9,64,,,,,,,,,,,,,254.45767309999792,254.45767309999792,254.95807769999374,,,,,,,1,003,21,Male,2023-05-02_16h36.18.150,face_recognition_ERP_protocol,2022.2.5,59.91590203427807,
Celebs/45_Will_Smith_0014.jpg,non_target,1,0,1,0,0,10,10,59,,,,,,,,,,,,,255.45880369999213,255.45880369999213,255.9591902999964,,,,,,,1,003,21,Male,2023-05-02_16h36.18.150,face_recognition_ERP_protocol,2022.2.5,59.91590203427807,
Celebs/20_Emma_Watson_0007.jpg,non_target,1,0,1,0,0,11,11,96,,,,,,,,,,,,,256.4600111999898,256.4600111999898,256.96024789998773,,,,,,,1,003,21,Male,2023-05-02_16h36.18.150,face_recognition_ERP_protocol,2022.2.5,59.91590203427807,
Celebs/50_Johnny_Depp_0004.jpg,non_target,1,0,1,0,0,12,12,39,,,,,,,,,,,,,257.46096170000965,257.46096170000965,257.961478000012,,,,,,,1,003,21,Male,2023-05-02_16h36.18.150,face_recognition_ERP_protocol,2022.2.5,59.91590203427807,
Celebs/16_Emma_Stone_0012.jpg,non_target,1,0,1,0,0,13,13,70,,,,,,,,,,,,,258.4621549999865,258.4621549999865,258.962514999992,,,,,,,1,003,21,Male,2023-05-02_16h36.18.150,face_recognition_ERP_protocol,2022.2.5,59.91590203427807,
Celebs/32_Jim_Parsons_0010.jpg,non_target,1,0,1,0,0,14,14,98,,,,,,,,,,,,,259.4631994999945,259.4631994999945,259.96367130000726,,,,,,,1,003,21,Male,2023-05-02_16h36.18.150,face_recognition_ERP_protocol,2022.2.5,59.91590203427807,
Celebs/44_Will_Smith_0015.jpg,non_target,1,0,1,0,0,15,15,101,,,,,,,,,,,,,260.4643966000003,260.4643966000003,260.96475899999496,,,,,,,1,003,21,Male,2023-05-02_16h36.18.150,face_recognition_ERP_protocol,2022.2.5,59.91590203427807,
Celebs/14_Emma_Watson_0013.jpg,non_target,1,0,1,0,0,16,16,20,,,,,,,,,,,,,261.46551370000816,261.46551370000816,261.9658699000138,,,,,,,1,003,21,Male,2023-05-02_16h36.18.150,face_recognition_ERP_protocol,2022.2.5,59.91590203427807,
Celebs/17_Margot_Robbie_0014.jpg,non_target,1,0,1,0,0,17,17,114,,,,,,,,,,,,,262.4666223000095,262.4666223000095,262.9671024999989,,,,,,,1,003,21,Male,2023-05-02_16h36.18.150,face_recognition_ERP_protocol,2022.2.5,59.91590203427807,
Celebs/21_Emma_Stone_0003.jpg,non_target,1,0,1,0,0,18,18,25,,,,,,,,,,,,,263.4513325000007,263.4513325000007,263.9515626000066,,,,,,,1,003,21,Male,2023-05-02_16h36.18.150,face_recognition_ERP_protocol,2022.2.5,59.91590203427807,
Celebs/23_Daniel_Radcliffe_0019.jpg,target,1,0,1,0,0,19,19,6,,,,,,,,,,,,,264.45324360000086,264.45324360000086,264.952638799994,,,,,,,1,003,21,Male,2023-05-02_16h36.18.150,face_recognition_ERP_protocol,2022.2.5,59.91590203427807,
Celebs/36_Neil_Patrick_Harris_0010.jpg,non_target,1,0,1,0,0,20,20,79,,,,,,,,,,,,,265.4535399999877,265.4535399999877,265.95379010000033,,,,,,,1,003,21,Male,2023-05-02_16h36.18.150,face_recognition_ERP_protocol,2022.2.5,59.91590203427807,
Celebs/54_Jackie_Chan_0014.jpg,non_target,1,0,1,0,0,21,21,111,,,,,,,,,,,,,266.45452560001286,266.45452560001286,266.9548865999968,,,,,,,1,003,21,Male,2023-05-02_16h36.18.150,face_recognition_ERP_protocol,2022.2.5,59.91590203427807,
Celebs/39_Jim_Parsons_0004.jpg,non_target,1,0,1,0,0,22,22,88,,,,,,,,,,,,,267.4557888999989,267.4557888999989,267.95608390000416,,,,,,,1,003,21,Male,2023-05-02_16h36.18.150,face_recognition_ERP_protocol,2022.2.5,59.91590203427807,
Celebs/34_Neil_Patrick_Harris_0007.jpg,non_target,1,0,1,0,0,23,23,117,,,,,,,,,,,,,268.4568489000085,268.4568489000085,268.95715010000276,,,,,,,1,003,21,Male,2023-05-02_16h36.18.150,face_recognition_ERP_protocol,2022.2.5,59.91590203427807,
Celebs/44_Will_Smith_0007.jpg,non_target,1,0,1,0,0,24,24,65,,,,,,,,,,,,,269.4579023999977,269.4579023999977,269.95835110000917,,,,,,,1,003,21,Male,2023-05-02_16h36.18.150,face_recognition_ERP_protocol,2022.2.5,59.91590203427807,
Celebs/21_Emma_Watson_0004.jpg,non_target,1,0,1,0,0,25,25,21,,,,,,,,,,,,,270.4590212999901,270.4590212999901,270.9594223999884,,,,,,,1,003,21,Male,2023-05-02_16h36.18.150,face_recognition_ERP_protocol,2022.2.5,59.91590203427807,
Celebs/48_Johnny_Depp_0005.jpg,non_target,1,0,1,0,0,26,26,54,,,,,,,,,,,,,271.46025770000415,271.46025770000415,271.9606214000087,,,,,,,1,003,21,Male,2023-05-02_16h36.18.150,face_recognition_ERP_protocol,2022.2.5,59.91590203427807,
Celebs/14_Emma_Watson_0004.jpg,non_target,1,0,1,0,0,27,27,14,,,,,,,,,,,,,272.4613365000114,272.4613365000114,272.9617353999929,,,,,,,1,003,21,Male,2023-05-02_16h36.18.150,face_recognition_ERP_protocol,2022.2.5,59.91590203427807,
Celebs/18_Emma_Stone_0016.jpg,non_target,1,0,1,0,0,28,28,52,,,,,,,,,,,,,273.462360000005,273.462360000005,273.96283120001317,,,,,,,1,003,21,Male,2023-05-02_16h36.18.150,face_recognition_ERP_protocol,2022.2.5,59.91590203427807,
Celebs/29_Scarlett_Johansson_0016.jpg,non_target,1,0,1,0,0,29,29,2,,,,,,,,,,,,,274.4634885000123,274.4634885000123,274.9639322999865,,,,,,,1,003,21,Male,2023-05-02_16h36.18.150,face_recognition_ERP_protocol,2022.2.5,59.91590203427807,
Celebs/17_Emma_Watson_0006.jpg,non_target,1,0,1,0,0,30,30,90,,,,,,,,,,,,,275.46470240000053,275.46470240000053,275.96512070001336,,,,,,,1,003,21,Male,2023-05-02_16h36.18.150,face_recognition_ERP_protocol,2022.2.5,59.91590203427807,
Celebs/55_Jackie_Chan_0003.jpg,non_target,1,0,1,0,0,31,31,29,,,,,,,,,,,,,276.46580299999914,276.46580299999914,276.9661799999885,,,,,,,1,003,21,Male,2023-05-02_16h36.18.150,face_recognition_ERP_protocol,2022.2.5,59.91590203427807,
Celebs/39_Jim_Parsons_0010.jpg,non_target,1,0,1,0,0,32,32,0,,,,,,,,,,,,,277.466849599994,277.466849599994,277.950636900001,,,,,,,1,003,21,Male,2023-05-02_16h36.18.150,face_recognition_ERP_protocol,2022.2.5,59.91590203427807,
Celebs/21_Daniel_Radcliffe_0009.jpg,target,1,0,1,0,0,33,33,83,,,,,,,,,,,,,278.4512005999859,278.4512005999859,278.9517821999907,,,,,,,1,003,21,Male,2023-05-02_16h36.18.150,face_recognition_ERP_protocol,2022.2.5,59.91590203427807,
Celebs/39_Neil_Patrick_Harris_0010.jpg,non_target,1,0,1,0,0,34,34,94,,,,,,,,,,,,,279.452621000004,279.452621000004,279.95295229999465,,,,,,,1,003,21,Male,2023-05-02_16h36.18.150,face_recognition_ERP_protocol,2022.2.5,59.91590203427807,
Celebs/48_Johnny_Depp_0003.jpg,non_target,1,0,1,0,0,35,35,55,,,,,,,,,,,,,280.4538072999858,280.4538072999858,280.9541319000127,,,,,,,1,003,21,Male,2023-05-02_16h36.18.150,face_recognition_ERP_protocol,2022.2.5,59.91590203427807,
Celebs/23_Daniel_Radcliffe_0002.jpg,target,1,0,1,0,0,36,36,77,,,,,,,,,,,,,281.45487439999124,281.45487439999124,281.95519360000617,,,,,,,1,003,21,Male,2023-05-02_16h36.18.150,face_recognition_ERP_protocol,2022.2.5,59.91590203427807,
Celebs/14_Emma_Watson_0008.jpg,non_target,1,0,1,0,0,37,37,36,,,,,,,,,,,,,282.4558871999907,282.4558871999907,282.95637629998964,,,,,,,1,003,21,Male,2023-05-02_16h36.18.150,face_recognition_ERP_protocol,2022.2.5,59.91590203427807,
Celebs/50_Johnny_Depp_0008.jpg,non_target,1,0,1,0,0,38,38,84,,,,,,,,,,,,,283.45697890000883,283.45697890000883,283.95747120000306,,,,,,,1,003,21,Male,2023-05-02_16h36.18.150,face_recognition_ERP_protocol,2022.2.5,59.91590203427807,
Celebs/16_Emma_Stone_0008.jpg,non_target,1,0,1,0,0,39,39,48,,,,,,,,,,,,,284.45814179998706,284.45814179998706,284.958791299985,,,,,,,1,003,21,Male,2023-05-02_16h36.18.150,face_recognition_ERP_protocol,2022.2.5,59.91590203427807,
Celebs/22_Emma_Watson_0010.jpg,non_target,1,0,1,0,0,40,40,11,,,,,,,,,,,,,285.4592527000059,285.4592527000059,285.9597927000141,,,,,,,1,003,21,Male,2023-05-02_16h36.18.150,face_recognition_ERP_protocol,2022.2.5,59.91590203427807,
Celebs/54_Jackie_Chan_0001.jpg,non_target,1,0,1,0,0,41,41,7,,,,,,,,,,,,,286.4604507999902,286.4604507999902,286.9608966000087,,,,,,,1,003,21,Male,2023-05-02_16h36.18.150,face_recognition_ERP_protocol,2022.2.5,59.91590203427807,
Celebs/32_Jim_Parsons_0016.jpg,non_target,1,0,1,0,0,42,42,102,,,,,,,,,,,,,287.4615341000026,287.4615341000026,287.9619786000112,,,,,,,1,003,21,Male,2023-05-02_16h36.18.150,face_recognition_ERP_protocol,2022.2.5,59.91590203427807,
Celebs/17_Daniel_Radcliffe_0007.jpg,target,1,0,1,0,0,43,43,19,,,,,,,,,,,,,288.46267939999234,288.46267939999234,288.9631012000027,,,,,,,1,003,21,Male,2023-05-02_16h36.18.150,face_recognition_ERP_protocol,2022.2.5,59.91590203427807,
Celebs/21_Emma_Stone_0002.jpg,non_target,1,0,1,0,0,44,44,103,,,,,,,,,,,,,289.46386930000153,289.46386930000153,289.96421030000784,,,,,,,1,003,21,Male,2023-05-02_16h36.18.150,face_recognition_ERP_protocol,2022.2.5,59.91590203427807,
Celebs/19_Emma_Stone_0006.jpg,non_target,1,0,1,0,0,45,45,66,,,,,,,,,,,,,290.46505709999474,290.46505709999474,290.9653965999896,,,,,,,1,003,21,Male,2023-05-02_16h36.18.150,face_recognition_ERP_protocol,2022.2.5,59.91590203427807,
Celebs/22_Emma_Watson_0003.jpg,non_target,1,0,1,0,0,46,46,91,,,,,,,,,,,,,291.4660751000047,291.4660751000047,291.9664855999872,,,,,,,1,003,21,Male,2023-05-02_16h36.18.150,face_recognition_ERP_protocol,2022.2.5,59.91590203427807,
Celebs/22_Margot_Robbie_0010.jpg,non_target,1,0,1,0,0,47,47,18,,,,,,,,,,,,,292.4673152999894,292.4673152999894,292.95095960001345,,,,,,,1,003,21,Male,2023-05-02_16h36.18.150,face_recognition_ERP_protocol,2022.2.5,59.91590203427807,
Celebs/36_Jim_Parsons_0011.jpg,non_target,1,0,1,0,0,48,48,86,,,,,,,,,,,,,293.4516973000136,293.4516973000136,293.95207389999996,,,,,,,1,003,21,Male,2023-05-02_16h36.18.150,face_recognition_ERP_protocol,2022.2.5,59.91590203427807,
Celebs/38_Will_Smith_0013.jpg,non_target,1,0,1,0,0,49,49,13,,,,,,,,,,,,,294.4529145999986,294.4529145999986,294.9532169000013,,,,,,,1,003,21,Male,2023-05-02_16h36.18.150,face_recognition_ERP_protocol,2022.2.5,59.91590203427807,
Celebs/50_Johnny_Depp_0010.jpg,non_target,1,0,1,0,0,50,50,115,,,,,,,,,,,,,295.4539006999985,295.4539006999985,295.95439940001233,,,,,,,1,003,21,Male,2023-05-02_16h36.18.150,face_recognition_ERP_protocol,2022.2.5,59.91590203427807,
Celebs/26_Scarlett_Johansson_0003.jpg,non_target,1,0,1,0,0,51,51,105,,,,,,,,,,,,,296.4550883999909,296.4550883999909,296.95547129999613,,,,,,,1,003,21,Male,2023-05-02_16h36.18.150,face_recognition_ERP_protocol,2022.2.5,59.91590203427807,
Celebs/57_Jackie_Chan_0010.jpg,non_target,1,0,1,0,0,52,52,62,,,,,,,,,,,,,297.4562050999957,297.4562050999957,297.95662179999636,,,,,,,1,003,21,Male,2023-05-02_16h36.18.150,face_recognition_ERP_protocol,2022.2.5,59.91590203427807,
Celebs/17_Margot_Robbie_0012.jpg,non_target,1,0,1,0,0,53,53,67,,,,,,,,,,,,,298.4572954000032,298.4572954000032,298.9579614000104,,,,,,,1,003,21,Male,2023-05-02_16h36.18.150,face_recognition_ERP_protocol,2022.2.5,59.91590203427807,
Celebs/16_Margot_Robbie_0009.jpg,non_target,1,0,1,0,0,54,54,107,,,,,,,,,,,,,299.4585572000069,299.4585572000069,299.95893120000255,,,,,,,1,003,21,Male,2023-05-02_16h36.18.150,face_recognition_ERP_protocol,2022.2.5,59.91590203427807,
Celebs/21_Daniel_Radcliffe_0008.jpg,target,1,0,1,0,0,55,55,16,,,,,,,,,,,,,300.4595447999891,300.4595447999891,300.96005920000607,,,,,,,1,003,21,Male,2023-05-02_16h36.18.150,face_recognition_ERP_protocol,2022.2.5,59.91590203427807,
Celebs/29_Scarlett_Johansson_0010.jpg,non_target,1,0,1,0,0,56,56,85,,,,,,,,,,,,,301.4607987999916,301.4607987999916,301.9611328000028,,,,,,,1,003,21,Male,2023-05-02_16h36.18.150,face_recognition_ERP_protocol,2022.2.5,59.91590203427807,
Celebs/39_Neil_Patrick_Harris_0001.jpg,non_target,1,0,1,0,0,57,57,4,,,,,,,,,,,,,302.46185580000747,302.46185580000747,302.9622715000005,,,,,,,1,003,21,Male,2023-05-02_16h36.18.150,face_recognition_ERP_protocol,2022.2.5,59.91590203427807,
Celebs/20_Emma_Stone_0005.jpg,non_target,1,0,1,0,0,58,58,63,,,,,,,,,,,,,303.46307779999916,303.46307779999916,303.96342429998913,,,,,,,1,003,21,Male,2023-05-02_16h36.18.150,face_recognition_ERP_protocol,2022.2.5,59.91590203427807,
Celebs/20_Margot_Robbie_0004.jpg,non_target,1,0,1,0,0,59,59,116,,,,,,,,,,,,,304.4642343999876,304.4642343999876,304.96454559999984,,,,,,,1,003,21,Male,2023-05-02_16h36.18.150,face_recognition_ERP_protocol,2022.2.5,59.91590203427807,
Celebs/40_Jim_Parsons_0004.jpg,non_target,1,0,1,0,0,60,60,73,,,,,,,,,,,,,305.46526510000695,305.46526510000695,305.9657658000069,,,,,,,1,003,21,Male,2023-05-02_16h36.18.150,face_recognition_ERP_protocol,2022.2.5,59.91590203427807,
Celebs/17_Margot_Robbie_0006.jpg,non_target,1,0,1,0,0,61,61,17,,,,,,,,,,,,,306.46650979999686,306.46650979999686,306.9669952999975,,,,,,,1,003,21,Male,2023-05-02_16h36.18.150,face_recognition_ERP_protocol,2022.2.5,59.91590203427807,
Celebs/55_Jackie_Chan_0015.jpg,non_target,1,0,1,0,0,62,62,30,,,,,,,,,,,,,307.45088789999136,307.45088789999136,307.9512023999996,,,,,,,1,003,21,Male,2023-05-02_16h36.18.150,face_recognition_ERP_protocol,2022.2.5,59.91590203427807,
Celebs/14_Emma_Watson_0015.jpg,non_target,1,0,1,0,0,63,63,56,,,,,,,,,,,,,308.45195570000215,308.45195570000215,308.952443999995,,,,,,,1,003,21,Male,2023-05-02_16h36.18.150,face_recognition_ERP_protocol,2022.2.5,59.91590203427807,
Celebs/44_Will_Smith_0006.jpg,non_target,1,0,1,0,0,64,64,41,,,,,,,,,,,,,309.45323220000137,309.45323220000137,309.9535285999882,,,,,,,1,003,21,Male,2023-05-02_16h36.18.150,face_recognition_ERP_protocol,2022.2.5,59.91590203427807,
Celebs/35_Neil_Patrick_Harris_0009.jpg,non_target,1,0,1,0,0,65,65,87,,,,,,,,,,,,,310.4543493000092,310.4543493000092,310.95468990001245,,,,,,,1,003,21,Male,2023-05-02_16h36.18.150,face_recognition_ERP_protocol,2022.2.5,59.91590203427807,
Celebs/37_Neil_Patrick_Harris_0010.jpg,non_target,1,0,1,0,0,66,66,93,,,,,,,,,,,,,311.4553933000134,311.4553933000134,311.9557955999917,,,,,,,1,003,21,Male,2023-05-02_16h36.18.150,face_recognition_ERP_protocol,2022.2.5,59.91590203427807,
Celebs/18_Daniel_Radcliffe_0008.jpg,target,1,0,1,0,0,67,67,28,,,,,,,,,,,,,312.4567296000023,312.4567296000023,312.95694500001264,,,,,,,1,003,21,Male,2023-05-02_16h36.18.150,face_recognition_ERP_protocol,2022.2.5,59.91590203427807,
Celebs/57_Jackie_Chan_0008.jpg,non_target,1,0,1,0,0,68,68,72,,,,,,,,,,,,,313.4578216999944,313.4578216999944,313.9580939000007,,,,,,,1,003,21,Male,2023-05-02_16h36.18.150,face_recognition_ERP_protocol,2022.2.5,59.91590203427807,
Celebs/24_Scarlett_Johansson_0011.jpg,non_target,1,0,1,0,0,69,69,100,,,,,,,,,,,,,314.45895289999316,314.45895289999316,314.9592767999857,,,,,,,1,003,21,Male,2023-05-02_16h36.18.150,face_recognition_ERP_protocol,2022.2.5,59.91590203427807,
Celebs/22_Scarlett_Johansson_0005.jpg,non_target,1,0,1,0,0,70,70,44,,,,,,,,,,,,,315.46005850000074,315.46005850000074,315.96034309998504,,,,,,,1,003,21,Male,2023-05-02_16h36.18.150,face_recognition_ERP_protocol,2022.2.5,59.91590203427807,
Celebs/18_Daniel_Radcliffe_0007.jpg,target,1,0,1,0,0,71,71,81,,,,,,,,,,,,,316.4611331000051,316.4611331000051,316.961487499997,,,,,,,1,003,21,Male,2023-05-02_16h36.18.150,face_recognition_ERP_protocol,2022.2.5,59.91590203427807,
Celebs/50_Jackie_Chan_0012.jpg,non_target,1,0,1,0,0,72,72,43,,,,,,,,,,,,,317.46228609999525,317.46228609999525,317.96254999999655,,,,,,,1,003,21,Male,2023-05-02_16h36.18.150,face_recognition_ERP_protocol,2022.2.5,59.91590203427807,
Celebs/47_Johnny_Depp_0009.jpg,non_target,1,0,1,0,0,73,73,23,,,,,,,,,,,,,318.4623705999984,318.4623705999984,318.96374899998773,,,,,,,1,003,21,Male,2023-05-02_16h36.18.150,face_recognition_ERP_protocol,2022.2.5,59.91590203427807,
Celebs/34_Neil_Patrick_Harris_0004.jpg,non_target,1,0,1,0,0,74,74,104,,,,,,,,,,,,,319.46448630001396,319.46448630001396,319.96492299999227,,,,,,,1,003,21,Male,2023-05-02_16h36.18.150,face_recognition_ERP_protocol,2022.2.5,59.91590203427807,
Celebs/33_Neil_Patrick_Harris_0011.jpg,non_target,1,0,1,0,0,75,75,112,,,,,,,,,,,,,320.4656806999992,320.4656806999992,320.9659818999935,,,,,,,1,003,21,Male,2023-05-02_16h36.18.150,face_recognition_ERP_protocol,2022.2.5,59.91590203427807,
Celebs/32_Jim_Parsons_0018.jpg,non_target,1,0,1,0,0,76,76,46,,,,,,,,,,,,,321.4679831000103,321.4679831000103,321.9671312000137,,,,,,,1,003,21,Male,2023-05-02_16h36.18.150,face_recognition_ERP_protocol,2022.2.5,59.91590203427807,
Celebs/25_Scarlett_Johansson_0010.jpg,non_target,1,0,1,0,0,77,77,32,,,,,,,,,,,,,322.45110549998935,322.45110549998935,322.95148819999304,,,,,,,1,003,21,Male,2023-05-02_16h36.18.150,face_recognition_ERP_protocol,2022.2.5,59.91590203427807,
Celebs/22_Emma_Watson_0001.jpg,non_target,1,0,1,0,0,78,78,58,,,,,,,,,,,,,323.4522300999961,323.4522300999961,323.9527362000081,,,,,,,1,003,21,Male,2023-05-02_16h36.18.150,face_recognition_ERP_protocol,2022.2.5,59.91590203427807,
Celebs/21_Scarlett_Johansson_0007.jpg,non_target,1,0,1,0,0,79,79,118,,,,,,,,,,,,,324.4534230999998,324.4534230999998,324.9538087999972,,,,,,,1,003,21,Male,2023-05-02_16h36.18.150,face_recognition_ERP_protocol,2022.2.5,59.91590203427807,
Celebs/15_Margot_Robbie_0005.jpg,non_target,1,0,1,0,0,80,80,80,,,,,,,,,,,,,325.4545780000044,325.4545780000044,325.95494970001164,,,,,,,1,003,21,Male,2023-05-02_16h36.18.150,face_recognition_ERP_protocol,2022.2.5,59.91590203427807,
Celebs/40_Will_Smith_0012.jpg,non_target,1,0,1,0,0,81,81,110,,,,,,,,,,,,,326.4556871000095,326.4556871000095,326.9560812000127,,,,,,,1,003,21,Male,2023-05-02_16h36.18.150,face_recognition_ERP_protocol,2022.2.5,59.91590203427807,
Celebs/15_Margot_Robbie_0012.jpg,non_target,1,0,1,0,0,82,82,82,,,,,,,,,,,,,327.4567593999964,327.4567593999964,327.9572260999994,,,,,,,1,003,21,Male,2023-05-02_16h36.18.150,face_recognition_ERP_protocol,2022.2.5,59.91590203427807,
Celebs/23_Daniel_Radcliffe_0010.jpg,target,1,0,1,0,0,83,83,15,,,,,,,,,,,,,328.45788979998906,328.45788979998906,328.9583086000057,,,,,,,1,003,21,Male,2023-05-02_16h36.18.150,face_recognition_ERP_protocol,2022.2.5,59.91590203427807,
Celebs/47_Johnny_Depp_0004.jpg,non_target,1,0,1,0,0,84,84,76,,,,,,,,,,,,,329.4591502000112,329.4591502000112,329.95966160000535,,,,,,,1,003,21,Male,2023-05-02_16h36.18.150,face_recognition_ERP_protocol,2022.2.5,59.91590203427807,
Celebs/20_Margot_Robbie_0006.jpg,non_target,1,0,1,0,0,85,85,35,,,,,,,,,,,,,330.4604127999919,330.4604127999919,330.9608220999944,,,,,,,1,003,21,Male,2023-05-02_16h36.18.150,face_recognition_ERP_protocol,2022.2.5,59.91590203427807,
Celebs/40_Jim_Parsons_0015.jpg,non_target,1,0,1,0,0,86,86,45,,,,,,,,,,,,,331.46174669999164,331.46174669999164,331.9617708000005,,,,,,,1,003,21,Male,2023-05-02_16h36.18.150,face_recognition_ERP_protocol,2022.2.5,59.91590203427807,
Celebs/14_Emma_Watson_0005.jpg,non_target,1,0,1,0,0,87,87,26,,,,,,,,,,,,,332.4625490999897,332.4625490999897,332.9629580999899,,,,,,,1,003,21,Male,2023-05-02_16h36.18.150,face_recognition_ERP_protocol,2022.2.5,59.91590203427807,
Celebs/50_Johnny_Depp_0018.jpg,non_target,1,0,1,0,0,88,88,24,,,,,,,,,,,,,333.463619999995,333.463619999995,333.96407700001146,,,,,,,1,003,21,Male,2023-05-02_16h36.18.150,face_recognition_ERP_protocol,2022.2.5,59.91590203427807,
Celebs/45_Will_Smith_0010.jpg,non_target,1,0,1,0,0,89,89,69,,,,,,,,,,,,,334.4648213000037,334.4648213000037,334.96526769999764,,,,,,,1,003,21,Male,2023-05-02_16h36.18.150,face_recognition_ERP_protocol,2022.2.5,59.91590203427807,
Celebs/20_Scarlett_Johansson_0011.jpg,non_target,1,0,1,0,0,90,90,109,,,,,,,,,,,,,335.4659433999914,335.4659433999914,335.9663205000106,,,,,,,1,003,21,Male,2023-05-02_16h36.18.150,face_recognition_ERP_protocol,2022.2.5,59.91590203427807,
Celebs/52_Jackie_Chan_0002.jpg,non_target,1,0,1,0,0,91,91,68,,,,,,,,,,,,,336.46708339999896,336.46708339999896,336.9506631999975,,,,,,,1,003,21,Male,2023-05-02_16h36.18.150,face_recognition_ERP_protocol,2022.2.5,59.91590203427807,
Celebs/33_Jim_Parsons_0011.jpg,non_target,1,0,1,0,0,92,92,34,,,,,,,,,,,,,337.4515126000042,337.4515126000042,337.95184799999697,,,,,,,1,003,21,Male,2023-05-02_16h36.18.150,face_recognition_ERP_protocol,2022.2.5,59.91590203427807,
Celebs/55_Jackie_Chan_0008.jpg,non_target,1,0,1,0,0,93,93,92,,,,,,,,,,,,,338.45264929998666,338.45264929998666,338.9529565999983,,,,,,,1,003,21,Male,2023-05-02_16h36.18.150,face_recognition_ERP_protocol,2022.2.5,59.91590203427807,
Celebs/48_Johnny_Depp_0001.jpg,non_target,1,0,1,0,0,94,94,106,,,,,,,,,,,,,339.4538482000062,339.4538482000062,339.9541167000134,,,,,,,1,003,21,Male,2023-05-02_16h36.18.150,face_recognition_ERP_protocol,2022.2.5,59.91590203427807,
Celebs/23_Emma_Stone_0014.jpg,non_target,1,0,1,0,0,95,95,12,,,,,,,,,,,,,340.45490700000664,340.45490700000664,340.9553287999879,,,,,,,1,003,21,Male,2023-05-02_16h36.18.150,face_recognition_ERP_protocol,2022.2.5,59.91590203427807,
Celebs/19_Margot_Robbie_0004.jpg,non_target,1,0,1,0,0,96,96,42,,,,,,,,,,,,,341.4559883000038,341.4559883000038,341.9563452999864,,,,,,,1,003,21,Male,2023-05-02_16h36.18.150,face_recognition_ERP_protocol,2022.2.5,59.91590203427807,
Celebs/21_Margot_Robbie_0003.jpg,non_target,1,0,1,0,0,97,97,27,,,,,,,,,,,,,342.45808459998807,342.45808459998807,342.95788850000827,,,,,,,1,003,21,Male,2023-05-02_16h36.18.150,face_recognition_ERP_protocol,2022.2.5,59.91590203427807,
Celebs/21_Daniel_Radcliffe_0012.jpg,target,1,0,1,0,0,98,98,8,,,,,,,,,,,,,343.45815170000424,343.45815170000424,343.9592635000008,,,,,,,1,003,21,Male,2023-05-02_16h36.18.150,face_recognition_ERP_protocol,2022.2.5,59.91590203427807,
Celebs/50_Jackie_Chan_0014.jpg,non_target,1,0,1,0,0,99,99,38,,,,,,,,,,,,,344.4599706000008,344.4599706000008,344.95978289999766,,,,,,,1,003,21,Male,2023-05-02_16h36.18.150,face_recognition_ERP_protocol,2022.2.5,59.91590203427807,
Celebs/16_Emma_Stone_0010.jpg,non_target,1,0,1,0,0,100,100,95,,,,,,,,,,,,,345.4611517000012,345.4611517000012,345.9616517999966,,,,,,,1,003,21,Male,2023-05-02_16h36.18.150,face_recognition_ERP_protocol,2022.2.5,59.91590203427807,
Celebs/18_Emma_Watson_0004.jpg,non_target,1,0,1,0,0,101,101,75,,,,,,,,,,,,,346.4616235999856,346.4616235999856,346.9624410000106,,,,,,,1,003,21,Male,2023-05-02_16h36.18.150,face_recognition_ERP_protocol,2022.2.5,59.91590203427807,
Celebs/24_Scarlett_Johansson_0001.jpg,non_target,1,0,1,0,0,102,102,10,,,,,,,,,,,,,347.4638627000095,347.4638627000095,347.9643941000104,,,,,,,1,003,21,Male,2023-05-02_16h36.18.150,face_recognition_ERP_protocol,2022.2.5,59.91590203427807,
Celebs/21_Daniel_Radcliffe_0002.jpg,target,1,0,1,0,0,103,103,60,,,,,,,,,,,,,348.4638224999944,348.4638224999944,348.96447909998824,,,,,,,1,003,21,Male,2023-05-02_16h36.18.150,face_recognition_ERP_protocol,2022.2.5,59.91590203427807,
Celebs/16_Emma_Stone_0014.jpg,non_target,1,0,1,0,0,104,104,40,,,,,,,,,,,,,349.4654628999997,349.4654628999997,349.9655844999943,,,,,,,1,003,21,Male,2023-05-02_16h36.18.150,face_recognition_ERP_protocol,2022.2.5,59.91590203427807,
Celebs/27_Scarlett_Johansson_0012.jpg,non_target,1,0,1,0,0,105,105,78,,,,,,,,,,,,,350.4670165999851,350.4670165999851,350.96662180000567,,,,,,,1,003,21,Male,2023-05-02_16h36.18.150,face_recognition_ERP_protocol,2022.2.5,59.91590203427807,
Celebs/24_Daniel_Radcliffe_0017.jpg,target,1,0,1,0,0,106,106,71,,,,,,,,,,,,,351.4510367999901,351.4510367999901,351.95111659998656,,,,,,,1,003,21,Male,2023-05-02_16h36.18.150,face_recognition_ERP_protocol,2022.2.5,59.91590203427807,
Celebs/22_Emma_Stone_0013.jpg,non_target,1,0,1,0,0,107,107,1,,,,,,,,,,,,,352.4522414999956,352.4522414999956,352.9549219000037,,,,,,,1,003,21,Male,2023-05-02_16h36.18.150,face_recognition_ERP_protocol,2022.2.5,59.91590203427807,
Celebs/24_Emma_Stone_0015.jpg,non_target,1,0,1,0,0,108,108,57,,,,,,,,,,,,,353.4531459000136,353.4531459000136,353.95337760000257,,,,,,,1,003,21,Male,2023-05-02_16h36.18.150,face_recognition_ERP_protocol,2022.2.5,59.91590203427807,
Celebs/36_Neil_Patrick_Harris_0007.jpg,non_target,1,0,1,0,0,109,109,5,,,,,,,,,,,,,354.45426719999523,354.45426719999523,354.9544915999868,,,,,,,1,003,21,Male,2023-05-02_16h36.18.150,face_recognition_ERP_protocol,2022.2.5,59.91590203427807,
Celebs/28_Scarlett_Johansson_0005.jpg,non_target,1,0,1,0,0,110,110,50,,,,,,,,,,,,,355.45545780000975,355.45545780000975,355.9556220000086,,,,,,,1,003,21,Male,2023-05-02_16h36.18.150,face_recognition_ERP_protocol,2022.2.5,59.91590203427807,
Celebs/47_Johnny_Depp_0003.jpg,non_target,1,0,1,0,0,111,111,9,,,,,,,,,,,,,356.45665080001345,356.45665080001345,356.9567773999879,,,,,,,1,003,21,Male,2023-05-02_16h36.18.150,face_recognition_ERP_protocol,2022.2.5,59.91590203427807,
Celebs/26_Scarlett_Johansson_0008.jpg,non_target,1,0,1,0,0,112,112,47,,,,,,,,,,,,,357.4577796999947,357.4577796999947,357.9578809000086,,,,,,,1,003,21,Male,2023-05-02_16h36.18.150,face_recognition_ERP_protocol,2022.2.5,59.91590203427807,
Celebs/43_Will_Smith_0007.jpg,non_target,1,0,1,0,0,113,113,74,,,,,,,,,,,,,358.45921969998744,358.45921969998744,358.95891620000475,,,,,,,1,003,21,Male,2023-05-02_16h36.18.150,face_recognition_ERP_protocol,2022.2.5,59.91590203427807,
Celebs/19_Margot_Robbie_0001.jpg,non_target,1,0,1,0,0,114,114,51,,,,,,,,,,,,,359.4598321999947,359.4598321999947,359.9600361000048,,,,,,,1,003,21,Male,2023-05-02_16h36.18.150,face_recognition_ERP_protocol,2022.2.5,59.91590203427807,
Celebs/38_Jim_Parsons_0003.jpg,non_target,1,0,1,0,0,115,115,53,,,,,,,,,,,,,360.4607171000098,360.4607171000098,360.9611361999996,,,,,,,1,003,21,Male,2023-05-02_16h36.18.150,face_recognition_ERP_protocol,2022.2.5,59.91590203427807,
Celebs/31_Neil_Patrick_Harris_0008.jpg,non_target,1,0,1,0,0,116,116,99,,,,,,,,,,,,,361.4620520999888,361.4620520999888,361.9623403000005,,,,,,,1,003,21,Male,2023-05-02_16h36.18.150,face_recognition_ERP_protocol,2022.2.5,59.91590203427807,
Celebs/18_Daniel_Radcliffe_0002.jpg,target,1,0,1,0,0,117,117,119,,,,,,,,,,,,,362.4630146000127,362.4630146000127,362.96338359999936,,,,,,,1,003,21,Male,2023-05-02_16h36.18.150,face_recognition_ERP_protocol,2022.2.5,59.91590203427807,
Celebs/37_Will_Smith_0015.jpg,non_target,1,0,1,0,0,118,118,113,,,,,,,,,,,,,363.46410939999623,363.46410939999623,363.9645820999867,,,,,,,1,003,21,Male,2023-05-02_16h36.18.150,face_recognition_ERP_protocol,2022.2.5,59.91590203427807,
Celebs/51_Jackie_Chan_0006.jpg,non_target,1,0,1,0,0,119,119,97,,,,,,,,,,,,,364.465209099988,364.465209099988,364.9656694000005,,,,,,,1,003,21,Male,2023-05-02_16h36.18.150,face_recognition_ERP_protocol,2022.2.5,59.91590203427807,
Celebs/45_Johnny_Depp_0003.jpg,non_target,2,0,2,0,0,0,0,108,,,,,,,,,,,,,377.4468586999865,377.4468586999865,377.9303748999955,,,365.4662403000111,365.4662403000111,space,11.917362400010461,1,003,21,Male,2023-05-02_16h36.18.150,face_recognition_ERP_protocol,2022.2.5,59.91590203427807,
Celebs/14_Emma_Watson_0015.jpg,non_target,2,0,2,0,0,1,1,56,,,,,,,,,,,,,378.4312501999957,378.4312501999957,378.9147826000117,,,,,,,1,003,21,Male,2023-05-02_16h36.18.150,face_recognition_ERP_protocol,2022.2.5,59.91590203427807,
Celebs/36_Jim_Parsons_0011.jpg,non_target,2,0,2,0,0,2,2,86,,,,,,,,,,,,,379.4155835999991,379.4155835999991,379.9159176000103,,,,,,,1,003,21,Male,2023-05-02_16h36.18.150,face_recognition_ERP_protocol,2022.2.5,59.91590203427807,
Celebs/21_Daniel_Radcliffe_0009.jpg,target,2,0,2,0,0,3,3,83,,,,,,,,,,,,,380.4167199000076,380.4167199000076,380.9170960999909,,,,,,,1,003,21,Male,2023-05-02_16h36.18.150,face_recognition_ERP_protocol,2022.2.5,59.91590203427807,
Celebs/21_Emma_Stone_0002.jpg,non_target,2,0,2,0,0,4,4,103,,,,,,,,,,,,,381.4179400000139,381.4179400000139,381.9181506999885,,,,,,,1,003,21,Male,2023-05-02_16h36.18.150,face_recognition_ERP_protocol,2022.2.5,59.91590203427807,
Celebs/52_Jackie_Chan_0002.jpg,non_target,2,0,2,0,0,5,5,68,,,,,,,,,,,,,382.4190763999941,382.4190763999941,382.91930129998946,,,,,,,1,003,21,Male,2023-05-02_16h36.18.150,face_recognition_ERP_protocol,2022.2.5,59.91590203427807,
Celebs/17_Daniel_Radcliffe_0007.jpg,target,2,0,2,0,0,6,6,19,,,,,,,,,,,,,383.42020039999625,383.42020039999625,383.9210072999995,,,,,,,1,003,21,Male,2023-05-02_16h36.18.150,face_recognition_ERP_protocol,2022.2.5,59.91590203427807,
Celebs/17_Margot_Robbie_0014.jpg,non_target,2,0,2,0,0,7,7,114,,,,,,,,,,,,,384.42110209999373,384.42110209999373,384.9215852000052,,,,,,,1,003,21,Male,2023-05-02_16h36.18.150,face_recognition_ERP_protocol,2022.2.5,59.91590203427807,
Celebs/20_Margot_Robbie_0006.jpg,non_target,2,0,2,0,0,8,8,35,,,,,,,,,,,,,385.4222858000139,385.4222858000139,385.9226985000132,,,,,,,1,003,21,Male,2023-05-02_16h36.18.150,face_recognition_ERP_protocol,2022.2.5,59.91590203427807,
Celebs/16_Emma_Stone_0010.jpg,non_target,2,0,2,0,0,9,9,95,,,,,,,,,,,,,386.42341610000585,386.42341610000585,386.9238316999981,,,,,,,1,003,21,Male,2023-05-02_16h36.18.150,face_recognition_ERP_protocol,2022.2.5,59.91590203427807,
Celebs/22_Emma_Stone_0013.jpg,non_target,2,0,2,0,0,10,10,1,,,,,,,,,,,,,387.42463649998535,387.42463649998535,387.9251777000027,,,,,,,1,003,21,Male,2023-05-02_16h36.18.150,face_recognition_ERP_protocol,2022.2.5,59.91590203427807,
Celebs/36_Neil_Patrick_Harris_0010.jpg,non_target,2,0,2,0,0,11,11,79,,,,,,,,,,,,,388.4256516000023,388.4256516000023,388.926659299992,,,,,,,1,003,21,Male,2023-05-02_16h36.18.150,face_recognition_ERP_protocol,2022.2.5,59.91590203427807,
Celebs/22_Margot_Robbie_0010.jpg,non_target,2,0,2,0,0,12,12,18,,,,,,,,,,,,,389.42679870000575,389.42679870000575,389.9273794000037,,,,,,,1,003,21,Male,2023-05-02_16h36.18.150,face_recognition_ERP_protocol,2022.2.5,59.91590203427807,
Celebs/34_Neil_Patrick_Harris_0007.jpg,non_target,2,0,2,0,0,13,13,117,,,,,,,,,,,,,390.42791040000156,390.42791040000156,390.9283538000018,,,,,,,1,003,21,Male,2023-05-02_16h36.18.150,face_recognition_ERP_protocol,2022.2.5,59.91590203427807,
Celebs/39_Jim_Parsons_0008.jpg,non_target,2,0,2,0,0,14,14,89,,,,,,,,,,,,,391.4291155000101,391.4291155000101,391.9294510000036,,,,,,,1,003,21,Male,2023-05-02_16h36.18.150,face_recognition_ERP_protocol,2022.2.5,59.91590203427807,
Celebs/45_Will_Smith_0014.jpg,non_target,2,0,2,0,0,15,15,59,,,,,,,,,,,,,392.43028319999576,392.43028319999576,392.9306244000036,,,,,,,1,003,21,Male,2023-05-02_16h36.18.150,face_recognition_ERP_protocol,2022.2.5,59.91590203427807,
Celebs/14_Emma_Watson_0013.jpg,non_target,2,0,2,0,0,16,16,20,,,,,,,,,,,,,393.4313678999897,393.4313678999897,393.9150398999918,,,,,,,1,003,21,Male,2023-05-02_16h36.18.150,face_recognition_ERP_protocol,2022.2.5,59.91590203427807,
Celebs/23_Daniel_Radcliffe_0019.jpg,target,2,0,2,0,0,17,17,6,,,,,,,,,,,,,394.4157897999976,394.4157897999976,394.9161474999855,,,,,,,1,003,21,Male,2023-05-02_16h36.18.150,face_recognition_ERP_protocol,2022.2.5,59.91590203427807,
Celebs/43_Will_Smith_0006.jpg,non_target,2,0,2,0,0,18,18,61,,,,,,,,,,,,,395.41708199999994,395.41708199999994,395.91736029999447,,,,,,,1,003,21,Male,2023-05-02_16h36.18.150,face_recognition_ERP_protocol,2022.2.5,59.91590203427807,
Celebs/43_Will_Smith_0010.jpg,non_target,2,0,2,0,0,19,19,22,,,,,,,,,,,,,396.4181943000003,396.4181943000003,396.91849819998606,,,,,,,1,003,21,Male,2023-05-02_16h36.18.150,face_recognition_ERP_protocol,2022.2.5,59.91590203427807,
Celebs/21_Daniel_Radcliffe_0002.jpg,target,2,0,2,0,0,20,20,60,,,,,,,,,,,,,397.4192847000086,397.4192847000086,397.9196401000081,,,,,,,1,003,21,Male,2023-05-02_16h36.18.150,face_recognition_ERP_protocol,2022.2.5,59.91590203427807,
Celebs/17_Emma_Watson_0006.jpg,non_target,2,0,2,0,0,21,21,90,,,,,,,,,,,,,398.4203809000028,398.4203809000028,398.92074269999284,,,,,,,1,003,21,Male,2023-05-02_16h36.18.150,face_recognition_ERP_protocol,2022.2.5,59.91590203427807,
Celebs/58_Jackie_Chan_0005.jpg,non_target,2,0,2,0,0,22,22,3,,,,,,,,,,,,,399.42161280001164,399.42161280001164,399.921906100004,,,,,,,1,003,21,Male,2023-05-02_16h36.18.150,face_recognition_ERP_protocol,2022.2.5,59.91590203427807,
Celebs/20_Scarlett_Johansson_0011.jpg,non_target,2,0,2,0,0,23,23,109,,,,,,,,,,,,,400.4226581999974,400.4226581999974,400.92303040000843,,,,,,,1,003,21,Male,2023-05-02_16h36.18.150,face_recognition_ERP_protocol,2022.2.5,59.91590203427807,
Celebs/50_Johnny_Depp_0010.jpg,non_target,2,0,2,0,0,24,24,115,,,,,,,,,,,,,401.42376720000175,401.42376720000175,401.9241788999934,,,,,,,1,003,21,Male,2023-05-02_16h36.18.150,face_recognition_ERP_protocol,2022.2.5,59.91590203427807,
Celebs/15_Margot_Robbie_0005.jpg,non_target,2,0,2,0,0,25,25,80,,,,,,,,,,,,,402.42508769998676,402.42508769998676,402.9253059999901,,,,,,,1,003,21,Male,2023-05-02_16h36.18.150,face_recognition_ERP_protocol,2022.2.5,59.91590203427807,
Celebs/50_Johnny_Depp_0008.jpg,non_target,2,0,2,0,0,26,26,84,,,,,,,,,,,,,403.4260896999913,403.4260896999913,403.9264552000095,,,,,,,1,003,21,Male,2023-05-02_16h36.18.150,face_recognition_ERP_protocol,2022.2.5,59.91590203427807,
Celebs/39_Jim_Parsons_0001.jpg,non_target,2,0,2,0,0,27,27,49,,,,,,,,,,,,,404.4275571999897,404.4275571999897,404.92750809999416,,,,,,,1,003,21,Male,2023-05-02_16h36.18.150,face_recognition_ERP_protocol,2022.2.5,59.91590203427807,
Celebs/32_Jim_Parsons_0010.jpg,non_target,2,0,2,0,0,28,28,98,,,,,,,,,,,,,405.4282927000022,405.4282927000022,405.9286839000124,,,,,,,1,003,21,Male,2023-05-02_16h36.18.150,face_recognition_ERP_protocol,2022.2.5,59.91590203427807,
Celebs/40_Will_Smith_0012.jpg,non_target,2,0,2,0,0,29,29,110,,,,,,,,,,,,,406.4294947999879,406.4294947999879,406.92982530000154,,,,,,,1,003,21,Male,2023-05-02_16h36.18.150,face_recognition_ERP_protocol,2022.2.5,59.91590203427807,
Celebs/21_Daniel_Radcliffe_0008.jpg,target,2,0,2,0,0,30,30,16,,,,,,,,,,,,,407.430594800011,407.430594800011,407.93104719999246,,,,,,,1,003,21,Male,2023-05-02_16h36.18.150,face_recognition_ERP_protocol,2022.2.5,59.91590203427807,
Celebs/44_Will_Smith_0006.jpg,non_target,2,0,2,0,0,31,31,41,,,,,,,,,,,,,408.4153054000053,408.4153054000053,408.91589909998584,,,,,,,1,003,21,Male,2023-05-02_16h36.18.150,face_recognition_ERP_protocol,2022.2.5,59.91590203427807,
Celebs/18_Daniel_Radcliffe_0008.jpg,target,2,0,2,0,0,32,32,28,,,,,,,,,,,,,409.41612259999965,409.41612259999965,409.91647520000697,,,,,,,1,003,21,Male,2023-05-02_16h36.18.150,face_recognition_ERP_protocol,2022.2.5,59.91590203427807,
Celebs/47_Johnny_Depp_0009.jpg,non_target,2,0,2,0,0,33,33,23,,,,,,,,,,,,,410.417781199998,410.417781199998,410.9181506999885,,,,,,,1,003,21,Male,2023-05-02_16h36.18.150,face_recognition_ERP_protocol,2022.2.5,59.91590203427807,
Celebs/23_Daniel_Radcliffe_0010.jpg,target,2,0,2,0,0,34,34,15,,,,,,,,,,,,,411.41885580000235,411.41885580000235,411.9188189000124,,,,,,,1,003,21,Male,2023-05-02_16h36.18.150,face_recognition_ERP_protocol,2022.2.5,59.91590203427807,
Celebs/55_Jackie_Chan_0003.jpg,non_target,2,0,2,0,0,35,35,29,,,,,,,,,,,,,412.4194370000041,412.4194370000041,412.9198926000099,,,,,,,1,003,21,Male,2023-05-02_16h36.18.150,face_recognition_ERP_protocol,2022.2.5,59.91590203427807,
Celebs/16_Emma_Stone_0008.jpg,non_target,2,0,2,0,0,36,36,48,,,,,,,,,,,,,413.4206853999931,413.4206853999931,413.9209722999949,,,,,,,1,003,21,Male,2023-05-02_16h36.18.150,face_recognition_ERP_protocol,2022.2.5,59.91590203427807,
Celebs/37_Neil_Patrick_Harris_0010.jpg,non_target,2,0,2,0,0,37,37,93,,,,,,,,,,,,,414.4216501000046,414.4216501000046,414.92214629999944,,,,,,,1,003,21,Male,2023-05-02_16h36.18.150,face_recognition_ERP_protocol,2022.2.5,59.91590203427807,
Celebs/24_Scarlett_Johansson_0011.jpg,non_target,2,0,2,0,0,38,38,100,,,,,,,,,,,,,415.42292139999336,415.42292139999336,415.9233282000059,,,,,,,1,003,21,Male,2023-05-02_16h36.18.150,face_recognition_ERP_protocol,2022.2.5,59.91590203427807,
Celebs/55_Jackie_Chan_0015.jpg,non_target,2,0,2,0,0,39,39,30,,,,,,,,,,,,,416.42412599999807,416.42412599999807,416.9244854999997,,,,,,,1,003,21,Male,2023-05-02_16h36.18.150,face_recognition_ERP_protocol,2022.2.5,59.91590203427807,
Celebs/21_Emma_Stone_0003.jpg,non_target,2,0,2,0,0,40,40,25,,,,,,,,,,,,,417.4254177999974,417.4254177999974,417.92564219998894,,,,,,,1,003,21,Male,2023-05-02_16h36.18.150,face_recognition_ERP_protocol,2022.2.5,59.91590203427807,
Celebs/42_Will_Smith_0012.jpg,non_target,2,0,2,0,0,41,41,64,,,,,,,,,,,,,418.42634060001,418.42634060001,418.9267195999855,,,,,,,1,003,21,Male,2023-05-02_16h36.18.150,face_recognition_ERP_protocol,2022.2.5,59.91590203427807,
Celebs/20_Emma_Watson_0007.jpg,non_target,2,0,2,0,0,42,42,96,,,,,,,,,,,,,419.4274970999977,419.4274970999977,419.9278367999941,,,,,,,1,003,21,Male,2023-05-02_16h36.18.150,face_recognition_ERP_protocol,2022.2.5,59.91590203427807,
Celebs/16_Margot_Robbie_0009.jpg,non_target,2,0,2,0,0,43,43,107,,,,,,,,,,,,,420.428676200012,420.428676200012,420.92897460001404,,,,,,,1,003,21,Male,2023-05-02_16h36.18.150,face_recognition_ERP_protocol,2022.2.5,59.91590203427807,
Celebs/25_Scarlett_Johansson_0010.jpg,non_target,2,0,2,0,0,44,44,32,,,,,,,,,,,,,421.42974349998985,421.42974349998985,421.93010309999227,,,,,,,1,003,21,Male,2023-05-02_16h36.18.150,face_recognition_ERP_protocol,2022.2.5,59.91590203427807,
Celebs/26_Scarlett_Johansson_0003.jpg,non_target,2,0,2,0,0,45,45,105,,,,,,,,,,,,,422.4308820999868,422.4308820999868,422.9146218000096,,,,,,,1,003,21,Male,2023-05-02_16h36.18.150,face_recognition_ERP_protocol,2022.2.5,59.91590203427807,
Celebs/23_Daniel_Radcliffe_0002.jpg,target,2,0,2,0,0,46,46,77,,,,,,,,,,,,,423.4153401000076,423.4153401000076,423.91562459999113,,,,,,,1,003,21,Male,2023-05-02_16h36.18.150,face_recognition_ERP_protocol,2022.2.5,59.91590203427807,
Celebs/35_Neil_Patrick_Harris_0009.jpg,non_target,2,0,2,0,0,47,47,87,,,,,,,,,,,,,424.41633859998547,424.41633859998547,424.91680380000616,,,,,,,1,003,21,Male,2023-05-02_16h36.18.150,face_recognition_ERP_protocol,2022.2.5,59.91590203427807,
Celebs/37_Will_Smith_0015.jpg,non_target,2,0,2,0,0,48,48,113,,,,,,,,,,,,,425.4175474999938,425.4175474999938,425.9179707999865,,,,,,,1,003,21,Male,2023-05-02_16h36.18.150,face_recognition_ERP_protocol,2022.2.5,59.91590203427807,
Celebs/48_Johnny_Depp_0001.jpg,non_target,2,0,2,0,0,49,49,106,,,,,,,,,,,,,426.41877530000056,426.41877530000056,426.9191248000134,,,,,,,1,003,21,Male,2023-05-02_16h36.18.150,face_recognition_ERP_protocol,2022.2.5,59.91590203427807,
Celebs/38_Jim_Parsons_0003.jpg,non_target,2,0,2,0,0,50,50,53,,,,,,,,,,,,,427.41974240000127,427.41974240000127,427.92016469998634,,,,,,,1,003,21,Male,2023-05-02_16h36.18.150,face_recognition_ERP_protocol,2022.2.5,59.91590203427807,
Celebs/45_Will_Smith_0010.jpg,non_target,2,0,2,0,0,51,51,69,,,,,,,,,,,,,428.42101309998543,428.42101309998543,428.9217379000038,,,,,,,1,003,21,Male,2023-05-02_16h36.18.150,face_recognition_ERP_protocol,2022.2.5,59.91590203427807,
Celebs/37_Neil_Patrick_Harris_0014.jpg,non_target,2,0,2,0,0,52,52,37,,,,,,,,,,,,,429.42206559999613,429.42206559999613,429.9224125999899,,,,,,,1,003,21,Male,2023-05-02_16h36.18.150,face_recognition_ERP_protocol,2022.2.5,59.91590203427807,
Celebs/16_Emma_Stone_0012.jpg,non_target,2,0,2,0,0,53,53,70,,,,,,,,,,,,,430.4232168000017,430.4232168000017,430.9236074000073,,,,,,,1,003,21,Male,2023-05-02_16h36.18.150,face_recognition_ERP_protocol,2022.2.5,59.91590203427807,
Celebs/49_Johnny_Depp_0013.jpg,non_target,2,0,2,0,0,54,54,33,,,,,,,,,,,,,431.42432910000207,431.42432910000207,431.92491699999664,,,,,,,1,003,21,Male,2023-05-02_16h36.18.150,face_recognition_ERP_protocol,2022.2.5,59.91590203427807,
Celebs/24_Daniel_Radcliffe_0017.jpg,target,2,0,2,0,0,55,55,71,,,,,,,,,,,,,432.42554590001237,432.42554590001237,432.9258957999991,,,,,,,1,003,21,Male,2023-05-02_16h36.18.150,face_recognition_ERP_protocol,2022.2.5,59.91590203427807,
Celebs/28_Scarlett_Johansson_0005.jpg,non_target,2,0,2,0,0,56,56,50,,,,,,,,,,,,,433.42655259999447,433.42655259999447,433.9269565999857,,,,,,,1,003,21,Male,2023-05-02_16h36.18.150,face_recognition_ERP_protocol,2022.2.5,59.91590203427807,
Celebs/18_Daniel_Radcliffe_0007.jpg,target,2,0,2,0,0,57,57,81,,,,,,,,,,,,,434.4277002000017,434.4277002000017,434.9280407000042,,,,,,,1,003,21,Male,2023-05-02_16h36.18.150,face_recognition_ERP_protocol,2022.2.5,59.91590203427807,
Celebs/14_Emma_Watson_0005.jpg,non_target,2,0,2,0,0,58,58,26,,,,,,,,,,,,,435.4288069999893,435.4288069999893,435.9291913000052,,,,,,,1,003,21,Male,2023-05-02_16h36.18.150,face_recognition_ERP_protocol,2022.2.5,59.91590203427807,
Celebs/21_Daniel_Radcliffe_0012.jpg,target,2,0,2,0,0,59,59,8,,,,,,,,,,,,,436.4301445999881,436.4301445999881,436.9303474999906,,,,,,,1,003,21,Male,2023-05-02_16h36.18.150,face_recognition_ERP_protocol,2022.2.5,59.91590203427807,
Celebs/39_Jim_Parsons_0010.jpg,non_target,2,0,2,0,0,60,60,0,,,,,,,,,,,,,437.43104649998713,437.43104649998713,437.9148578000022,,,,,,,1,003,21,Male,2023-05-02_16h36.18.150,face_recognition_ERP_protocol,2022.2.5,59.91590203427807,
Celebs/24_Emma_Stone_0015.jpg,non_target,2,0,2,0,0,61,61,57,,,,,,,,,,,,,438.41549419998773,438.41549419998773,438.9159183999873,,,,,,,1,003,21,Male,2023-05-02_16h36.18.150,face_recognition_ERP_protocol,2022.2.5,59.91590203427807,
Celebs/14_Emma_Watson_0004.jpg,non_target,2,0,2,0,0,62,62,14,,,,,,,,,,,,,439.4167141999933,439.4167141999933,439.9172360000084,,,,,,,1,003,21,Male,2023-05-02_16h36.18.150,face_recognition_ERP_protocol,2022.2.5,59.91590203427807,
Celebs/39_Neil_Patrick_Harris_0001.jpg,non_target,2,0,2,0,0,63,63,4,,,,,,,,,,,,,440.41795030000503,440.41795030000503,440.9181685000076,,,,,,,1,003,21,Male,2023-05-02_16h36.18.150,face_recognition_ERP_protocol,2022.2.5,59.91590203427807,
Celebs/18_Emma_Stone_0016.jpg,non_target,2,0,2,0,0,64,64,52,,,,,,,,,,,,,441.4189195999934,441.4189195999934,441.9194450000068,,,,,,,1,003,21,Male,2023-05-02_16h36.18.150,face_recognition_ERP_protocol,2022.2.5,59.91590203427807,
Celebs/47_Johnny_Depp_0004.jpg,non_target,2,0,2,0,0,65,65,76,,,,,,,,,,,,,442.4201342999877,442.4201342999877,442.92044650000753,,,,,,,1,003,21,Male,2023-05-02_16h36.18.150,face_recognition_ERP_protocol,2022.2.5,59.91590203427807,
Celebs/22_Emma_Watson_0003.jpg,non_target,2,0,2,0,0,66,66,91,,,,,,,,,,,,,443.4211632999941,443.4211632999941,443.921642900008,,,,,,,1,003,21,Male,2023-05-02_16h36.18.150,face_recognition_ERP_protocol,2022.2.5,59.91590203427807,
Celebs/57_Jackie_Chan_0008.jpg,non_target,2,0,2,0,0,67,67,72,,,,,,,,,,,,,444.4224172999966,444.4224172999966,444.9226692999946,,,,,,,1,003,21,Male,2023-05-02_16h36.18.150,face_recognition_ERP_protocol,2022.2.5,59.91590203427807,
Celebs/50_Jackie_Chan_0012.jpg,non_target,2,0,2,0,0,68,68,43,,,,,,,,,,,,,445.423460799997,445.423460799997,445.92387850000523,,,,,,,1,003,21,Male,2023-05-02_16h36.18.150,face_recognition_ERP_protocol,2022.2.5,59.91590203427807,
Celebs/19_Margot_Robbie_0004.jpg,non_target,2,0,2,0,0,69,69,42,,,,,,,,,,,,,446.4245860000083,446.4245860000083,446.9251193999953,,,,,,,1,003,21,Male,2023-05-02_16h36.18.150,face_recognition_ERP_protocol,2022.2.5,59.91590203427807,
Celebs/27_Scarlett_Johansson_0012.jpg,non_target,2,0,2,0,0,70,70,78,,,,,,,,,,,,,447.42575210001087,447.42575210001087,447.926306999987,,,,,,,1,003,21,Male,2023-05-02_16h36.18.150,face_recognition_ERP_protocol,2022.2.5,59.91590203427807,
Celebs/31_Neil_Patrick_Harris_0008.jpg,non_target,2,0,2,0,0,71,71,99,,,,,,,,,,,,,448.4269551000034,448.4269551000034,448.9273783999961,,,,,,,1,003,21,Male,2023-05-02_16h36.18.150,face_recognition_ERP_protocol,2022.2.5,59.91590203427807,
Celebs/19_Emma_Stone_0006.jpg,non_target,2,0,2,0,0,72,72,66,,,,,,,,,,,,,449.4279615000123,449.4279615000123,449.9284204999858,,,,,,,1,003,21,Male,2023-05-02_16h36.18.150,face_recognition_ERP_protocol,2022.2.5,59.91590203427807,
Celebs/29_Scarlett_Johansson_0010.jpg,non_target,2,0,2,0,0,73,73,85,,,,,,,,,,,,,450.4291774999874,450.4291774999874,450.929507199995,,,,,,,1,003,21,Male,2023-05-02_16h36.18.150,face_recognition_ERP_protocol,2022.2.5,59.91590203427807,
Celebs/17_Margot_Robbie_0006.jpg,non_target,2,0,2,0,0,74,74,17,,,,,,,,,,,,,451.4303277999861,451.4303277999861,451.93064310000045,,,,,,,1,003,21,Male,2023-05-02_16h36.18.150,face_recognition_ERP_protocol,2022.2.5,59.91590203427807,
Celebs/50_Johnny_Depp_0018.jpg,non_target,2,0,2,0,0,75,75,24,,,,,,,,,,,,,452.4149543000094,452.4149543000094,452.915193599998,,,,,,,1,003,21,Male,2023-05-02_16h36.18.150,face_recognition_ERP_protocol,2022.2.5,59.91590203427807,
Celebs/50_Jackie_Chan_0014.jpg,non_target,2,0,2,0,0,76,76,38,,,,,,,,,,,,,453.41590630001156,453.41590630001156,453.9162536000076,,,,,,,1,003,21,Male,2023-05-02_16h36.18.150,face_recognition_ERP_protocol,2022.2.5,59.91590203427807,
Celebs/39_Neil_Patrick_Harris_0010.jpg,non_target,2,0,2,0,0,77,77,94,,,,,,,,,,,,,454.41706509998767,454.41706509998767,454.91739550000057,,,,,,,1,003,21,Male,2023-05-02_16h36.18.150,face_recognition_ERP_protocol,2022.2.5,59.91590203427807,
Celebs/20_Emma_Stone_0005.jpg,non_target,2,0,2,0,0,78,78,63,,,,,,,,,,,,,455.41834529998596,455.41834529998596,455.9185090000101,,,,,,,1,003,21,Male,2023-05-02_16h36.18.150,face_recognition_ERP_protocol,2022.2.5,59.91590203427807,
Celebs/40_Jim_Parsons_0004.jpg,non_target,2,0,2,0,0,79,79,73,,,,,,,,,,,,,456.41950240000733,456.41950240000733,456.9196934000065,,,,,,,1,003,21,Male,2023-05-02_16h36.18.150,face_recognition_ERP_protocol,2022.2.5,59.91590203427807,
Celebs/26_Scarlett_Johansson_0008.jpg,non_target,2,0,2,0,0,80,80,47,,,,,,,,,,,,,457.42036550000194,457.42036550000194,457.9208149999904,,,,,,,1,003,21,Male,2023-05-02_16h36.18.150,face_recognition_ERP_protocol,2022.2.5,59.91590203427807,
Celebs/39_Jim_Parsons_0004.jpg,non_target,2,0,2,0,0,81,81,88,,,,,,,,,,,,,458.42154969999683,458.42154969999683,458.9219174000027,,,,,,,1,003,21,Male,2023-05-02_16h36.18.150,face_recognition_ERP_protocol,2022.2.5,59.91590203427807,
Celebs/14_Emma_Watson_0008.jpg,non_target,2,0,2,0,0,82,82,36,,,,,,,,,,,,,459.42265960000805,459.42265960000805,459.92303760000505,,,,,,,1,003,21,Male,2023-05-02_16h36.18.150,face_recognition_ERP_protocol,2022.2.5,59.91590203427807,
Celebs/20_Margot_Robbie_0004.jpg,non_target,2,0,2,0,0,83,83,116,,,,,,,,,,,,,460.42380469999625,460.42380469999625,460.9242907000007,,,,,,,1,003,21,Male,2023-05-02_16h36.18.150,face_recognition_ERP_protocol,2022.2.5,59.91590203427807,
Celebs/34_Neil_Patrick_Harris_0004.jpg,non_target,2,0,2,0,0,84,84,104,,,,,,,,,,,,,461.42490169999655,461.42490169999655,461.9254171999928,,,,,,,1,003,21,Male,2023-05-02_16h36.18.150,face_recognition_ERP_protocol,2022.2.5,59.91590203427807,
Celebs/48_Johnny_Depp_0003.jpg,non_target,2,0,2,0,0,85,85,55,,,,,,,,,,,,,462.42601890000515,462.42601890000515,462.926395699993,,,,,,,1,003,21,Male,2023-05-02_16h36.18.150,face_recognition_ERP_protocol,2022.2.5,59.91590203427807,
Celebs/54_Jackie_Chan_0014.jpg,non_target,2,0,2,0,0,86,86,111,,,,,,,,,,,,,463.42731850000564,463.42731850000564,463.9275302999886,,,,,,,1,003,21,Male,2023-05-02_16h36.18.150,face_recognition_ERP_protocol,2022.2.5,59.91590203427807,
Celebs/33_Neil_Patrick_Harris_0011.jpg,non_target,2,0,2,0,0,87,87,112,,,,,,,,,,,,,464.42819320000126,464.42819320000126,464.92865270000766,,,,,,,1,003,21,Male,2023-05-02_16h36.18.150,face_recognition_ERP_protocol,2022.2.5,59.91590203427807,
Celebs/19_Margot_Robbie_0001.jpg,non_target,2,0,2,0,0,88,88,51,,,,,,,,,,,,,465.4294047000003,465.4294047000003,465.9297695000132,,,,,,,1,003,21,Male,2023-05-02_16h36.18.150,face_recognition_ERP_protocol,2022.2.5,59.91590203427807,
Celebs/43_Will_Smith_0007.jpg,non_target,2,0,2,0,0,89,89,74,,,,,,,,,,,,,466.43053569999756,466.43053569999756,466.93089930000133,,,,,,,1,003,21,Male,2023-05-02_16h36.18.150,face_recognition_ERP_protocol,2022.2.5,59.91590203427807,
Celebs/36_Neil_Patrick_Harris_0007.jpg,non_target,2,0,2,0,0,90,90,5,,,,,,,,,,,,,467.4150115000084,467.4150115000084,467.915465500002,,,,,,,1,003,21,Male,2023-05-02_16h36.18.150,face_recognition_ERP_protocol,2022.2.5,59.91590203427807,
Celebs/38_Neil_Patrick_Harris_0006.jpg,non_target,2,0,2,0,0,91,91,31,,,,,,,,,,,,,468.41626100000576,468.41626100000576,468.91651589999674,,,,,,,1,003,21,Male,2023-05-02_16h36.18.150,face_recognition_ERP_protocol,2022.2.5,59.91590203427807,
Celebs/44_Will_Smith_0007.jpg,non_target,2,0,2,0,0,92,92,65,,,,,,,,,,,,,469.4172619000019,469.4172619000019,469.9176049999951,,,,,,,1,003,21,Male,2023-05-02_16h36.18.150,face_recognition_ERP_protocol,2022.2.5,59.91590203427807,
Celebs/18_Emma_Watson_0004.jpg,non_target,2,0,2,0,0,93,93,75,,,,,,,,,,,,,470.41838160000043,470.41838160000043,470.91873780000606,,,,,,,1,003,21,Male,2023-05-02_16h36.18.150,face_recognition_ERP_protocol,2022.2.5,59.91590203427807,
Celebs/24_Scarlett_Johansson_0001.jpg,non_target,2,0,2,0,0,94,94,10,,,,,,,,,,,,,471.4195109999855,471.4195109999855,471.9199198000133,,,,,,,1,003,21,Male,2023-05-02_16h36.18.150,face_recognition_ERP_protocol,2022.2.5,59.91590203427807,
Celebs/55_Jackie_Chan_0008.jpg,non_target,2,0,2,0,0,95,95,92,,,,,,,,,,,,,472.42059439999866,472.42059439999866,472.92103060000227,,,,,,,1,003,21,Male,2023-05-02_16h36.18.150,face_recognition_ERP_protocol,2022.2.5,59.91590203427807,
Celebs/33_Jim_Parsons_0011.jpg,non_target,2,0,2,0,0,96,96,34,,,,,,,,,,,,,473.4217964000127,473.4217964000127,473.9227660000033,,,,,,,1,003,21,Male,2023-05-02_16h36.18.150,face_recognition_ERP_protocol,2022.2.5,59.91590203427807,
Celebs/16_Emma_Stone_0014.jpg,non_target,2,0,2,0,0,97,97,40,,,,,,,,,,,,,474.42302049999125,474.42302049999125,474.92351570000756,,,,,,,1,003,21,Male,2023-05-02_16h36.18.150,face_recognition_ERP_protocol,2022.2.5,59.91590203427807,
Celebs/18_Daniel_Radcliffe_0002.jpg,target,2,0,2,0,0,98,98,119,,,,,,,,,,,,,475.42401190000237,475.42401190000237,475.9246848000039,,,,,,,1,003,21,Male,2023-05-02_16h36.18.150,face_recognition_ERP_protocol,2022.2.5,59.91590203427807,
Celebs/15_Margot_Robbie_0012.jpg,non_target,2,0,2,0,0,99,99,82,,,,,,,,,,,,,476.4250798999856,476.4250798999856,476.9256776999973,,,,,,,1,003,21,Male,2023-05-02_16h36.18.150,face_recognition_ERP_protocol,2022.2.5,59.91590203427807,
Celebs/22_Emma_Watson_0010.jpg,non_target,2,0,2,0,0,100,100,11,,,,,,,,,,,,,477.426306999987,477.426306999987,477.9267622999905,,,,,,,1,003,21,Male,2023-05-02_16h36.18.150,face_recognition_ERP_protocol,2022.2.5,59.91590203427807,
Celebs/57_Jackie_Chan_0010.jpg,non_target,2,0,2,0,0,101,101,62,,,,,,,,,,,,,478.42671870000777,478.42671870000777,478.9282070999907,,,,,,,1,003,21,Male,2023-05-02_16h36.18.150,face_recognition_ERP_protocol,2022.2.5,59.91590203427807,
Celebs/38_Will_Smith_0013.jpg,non_target,2,0,2,0,0,102,102,13,,,,,,,,,,,,,479.4288158999989,479.4288158999989,479.9290817999863,,,,,,,1,003,21,Male,2023-05-02_16h36.18.150,face_recognition_ERP_protocol,2022.2.5,59.91590203427807,
Celebs/21_Emma_Watson_0004.jpg,non_target,2,0,2,0,0,103,103,21,,,,,,,,,,,,,480.4297255999991,480.4297255999991,480.9301318000071,,,,,,,1,003,21,Male,2023-05-02_16h36.18.150,face_recognition_ERP_protocol,2022.2.5,59.91590203427807,
Celebs/54_Jackie_Chan_0001.jpg,non_target,2,0,2,0,0,104,104,7,,,,,,,,,,,,,481.4309534000058,481.4309534000058,481.91453529999126,,,,,,,1,003,21,Male,2023-05-02_16h36.18.150,face_recognition_ERP_protocol,2022.2.5,59.91590203427807,
Celebs/44_Will_Smith_0015.jpg,non_target,2,0,2,0,0,105,105,101,,,,,,,,,,,,,482.415367300011,482.415367300011,482.91574540000875,,,,,,,1,003,21,Male,2023-05-02_16h36.18.150,face_recognition_ERP_protocol,2022.2.5,59.91590203427807,
Celebs/48_Johnny_Depp_0005.jpg,non_target,2,0,2,0,0,106,106,54,,,,,,,,,,,,,483.4164526000095,483.4164526000095,483.91682809998747,,,,,,,1,003,21,Male,2023-05-02_16h36.18.150,face_recognition_ERP_protocol,2022.2.5,59.91590203427807,
Celebs/21_Margot_Robbie_0003.jpg,non_target,2,0,2,0,0,107,107,27,,,,,,,,,,,,,484.4174677999981,484.4174677999981,484.9180181999982,,,,,,,1,003,21,Male,2023-05-02_16h36.18.150,face_recognition_ERP_protocol,2022.2.5,59.91590203427807,
Celebs/51_Jackie_Chan_0006.jpg,non_target,2,0,2,0,0,108,108,97,,,,,,,,,,,,,485.4186200000113,485.4186200000113,485.9191529999953,,,,,,,1,003,21,Male,2023-05-02_16h36.18.150,face_recognition_ERP_protocol,2022.2.5,59.91590203427807,
Celebs/40_Jim_Parsons_0015.jpg,non_target,2,0,2,0,0,109,109,45,,,,,,,,,,,,,486.41974010001286,486.41974010001286,486.9202098000096,,,,,,,1,003,21,Male,2023-05-02_16h36.18.150,face_recognition_ERP_protocol,2022.2.5,59.91590203427807,
Celebs/22_Emma_Watson_0001.jpg,non_target,2,0,2,0,0,110,110,58,,,,,,,,,,,,,487.42093540000496,487.42093540000496,487.9213606000121,,,,,,,1,003,21,Male,2023-05-02_16h36.18.150,face_recognition_ERP_protocol,2022.2.5,59.91590203427807,
Celebs/21_Scarlett_Johansson_0007.jpg,non_target,2,0,2,0,0,111,111,118,,,,,,,,,,,,,488.4220881999936,488.4220881999936,488.92242310001166,,,,,,,1,003,21,Male,2023-05-02_16h36.18.150,face_recognition_ERP_protocol,2022.2.5,59.91590203427807,
Celebs/23_Emma_Stone_0014.jpg,non_target,2,0,2,0,0,112,112,12,,,,,,,,,,,,,489.4231649999856,489.4231649999856,489.923601699993,,,,,,,1,003,21,Male,2023-05-02_16h36.18.150,face_recognition_ERP_protocol,2022.2.5,59.91590203427807,
Celebs/22_Scarlett_Johansson_0005.jpg,non_target,2,0,2,0,0,113,113,44,,,,,,,,,,,,,490.4244628000015,490.4244628000015,490.9247587999853,,,,,,,1,003,21,Male,2023-05-02_16h36.18.150,face_recognition_ERP_protocol,2022.2.5,59.91590203427807,
Celebs/29_Scarlett_Johansson_0016.jpg,non_target,2,0,2,0,0,114,114,2,,,,,,,,,,,,,491.4260673999961,491.4260673999961,491.92583100000047,,,,,,,1,003,21,Male,2023-05-02_16h36.18.150,face_recognition_ERP_protocol,2022.2.5,59.91590203427807,
Celebs/47_Johnny_Depp_0003.jpg,non_target,2,0,2,0,0,115,115,9,,,,,,,,,,,,,492.42677180000464,492.42677180000464,492.9269637000107,,,,,,,1,003,21,Male,2023-05-02_16h36.18.150,face_recognition_ERP_protocol,2022.2.5,59.91590203427807,
Celebs/32_Jim_Parsons_0016.jpg,non_target,2,0,2,0,0,116,116,102,,,,,,,,,,,,,493.4279544999881,493.4279544999881,493.9281852999993,,,,,,,1,003,21,Male,2023-05-02_16h36.18.150,face_recognition_ERP_protocol,2022.2.5,59.91590203427807,
Celebs/50_Johnny_Depp_0004.jpg,non_target,2,0,2,0,0,117,117,39,,,,,,,,,,,,,494.4288286000083,494.4288286000083,494.92927319998853,,,,,,,1,003,21,Male,2023-05-02_16h36.18.150,face_recognition_ERP_protocol,2022.2.5,59.91590203427807,
Celebs/17_Margot_Robbie_0012.jpg,non_target,2,0,2,0,0,118,118,67,,,,,,,,,,,,,495.4298911000078,495.4298911000078,495.9303591999924,,,,,,,1,003,21,Male,2023-05-02_16h36.18.150,face_recognition_ERP_protocol,2022.2.5,59.91590203427807,
Celebs/32_Jim_Parsons_0018.jpg,non_target,2,0,2,0,0,119,119,46,,,,,,,,,,,,,496.43104470000253,496.43104470000253,496.91481479999493,,,,,,,1,003,21,Male,2023-05-02_16h36.18.150,face_recognition_ERP_protocol,2022.2.5,59.91590203427807,
Celebs/21_Daniel_Radcliffe_0012.jpg,target,3,0,3,0,0,0,0,8,,,,,,,,,,,,,511.23144659999525,511.23144659999525,511.71491989999777,,,497.41539119998924,497.41539119998924,space,13.75235339999199,1,003,21,Male,2023-05-02_16h36.18.150,face_recognition_ERP_protocol,2022.2.5,59.91590203427807,
Celebs/54_Jackie_Chan_0014.jpg,non_target,3,0,3,0,0,1,1,111,,,,,,,,,,,,,512.2155566999863,512.2155566999863,512.69936530001,,,,,,,1,003,21,Male,2023-05-02_16h36.18.150,face_recognition_ERP_protocol,2022.2.5,59.91590203427807,
Celebs/18_Emma_Stone_0016.jpg,non_target,3,0,3,0,0,2,2,52,,,,,,,,,,,,,513.2002012000012,513.2002012000012,513.7004422000027,,,,,,,1,003,21,Male,2023-05-02_16h36.18.150,face_recognition_ERP_protocol,2022.2.5,59.91590203427807,
Celebs/21_Emma_Watson_0004.jpg,non_target,3,0,3,0,0,3,3,21,,,,,,,,,,,,,514.201177400013,514.201177400013,514.7017377000011,,,,,,,1,003,21,Male,2023-05-02_16h36.18.150,face_recognition_ERP_protocol,2022.2.5,59.91590203427807,
Celebs/48_Johnny_Depp_0003.jpg,non_target,3,0,3,0,0,4,4,55,,,,,,,,,,,,,515.2022628000122,515.2022628000122,515.7027035999927,,,,,,,1,003,21,Male,2023-05-02_16h36.18.150,face_recognition_ERP_protocol,2022.2.5,59.91590203427807,
Celebs/17_Margot_Robbie_0006.jpg,non_target,3,0,3,0,0,5,5,17,,,,,,,,,,,,,516.2034187999961,516.2034187999961,516.7046372999903,,,,,,,1,003,21,Male,2023-05-02_16h36.18.150,face_recognition_ERP_protocol,2022.2.5,59.91590203427807,
Celebs/37_Neil_Patrick_Harris_0010.jpg,non_target,3,0,3,0,0,6,6,93,,,,,,,,,,,,,517.2045754999854,517.2045754999854,517.7050090999983,,,,,,,1,003,21,Male,2023-05-02_16h36.18.150,face_recognition_ERP_protocol,2022.2.5,59.91590203427807,
Celebs/38_Will_Smith_0013.jpg,non_target,3,0,3,0,0,7,7,13,,,,,,,,,,,,,518.2057345999929,518.2057345999929,518.7060849000118,,,,,,,1,003,21,Male,2023-05-02_16h36.18.150,face_recognition_ERP_protocol,2022.2.5,59.91590203427807,
Celebs/19_Margot_Robbie_0004.jpg,non_target,3,0,3,0,0,8,8,42,,,,,,,,,,,,,519.2068165999954,519.2068165999954,519.7072941999941,,,,,,,1,003,21,Male,2023-05-02_16h36.18.150,face_recognition_ERP_protocol,2022.2.5,59.91590203427807,
Celebs/39_Neil_Patrick_Harris_0001.jpg,non_target,3,0,3,0,0,9,9,4,,,,,,,,,,,,,520.2078655000078,520.2078655000078,520.708375199989,,,,,,,1,003,21,Male,2023-05-02_16h36.18.150,face_recognition_ERP_protocol,2022.2.5,59.91590203427807,
Celebs/34_Neil_Patrick_Harris_0004.jpg,non_target,3,0,3,0,0,10,10,104,,,,,,,,,,,,,521.2090855000133,521.2090855000133,521.7095231999992,,,,,,,1,003,21,Male,2023-05-02_16h36.18.150,face_recognition_ERP_protocol,2022.2.5,59.91590203427807,
Celebs/35_Neil_Patrick_Harris_0009.jpg,non_target,3,0,3,0,0,11,11,87,,,,,,,,,,,,,522.2103363999922,522.2103363999922,522.7107259999902,,,,,,,1,003,21,Male,2023-05-02_16h36.18.150,face_recognition_ERP_protocol,2022.2.5,59.91590203427807,
Celebs/42_Will_Smith_0012.jpg,non_target,3,0,3,0,0,12,12,64,,,,,,,,,,,,,523.2113281000056,523.2113281000056,523.711730400013,,,,,,,1,003,21,Male,2023-05-02_16h36.18.150,face_recognition_ERP_protocol,2022.2.5,59.91590203427807,
Celebs/36_Neil_Patrick_Harris_0010.jpg,non_target,3,0,3,0,0,13,13,79,,,,,,,,,,,,,524.2125014000048,524.2125014000048,524.7129093999974,,,,,,,1,003,21,Male,2023-05-02_16h36.18.150,face_recognition_ERP_protocol,2022.2.5,59.91590203427807,
Celebs/39_Jim_Parsons_0008.jpg,non_target,3,0,3,0,0,14,14,89,,,,,,,,,,,,,525.2136962999939,525.2136962999939,525.7140580000123,,,,,,,1,003,21,Male,2023-05-02_16h36.18.150,face_recognition_ERP_protocol,2022.2.5,59.91590203427807,
Celebs/49_Johnny_Depp_0013.jpg,non_target,3,0,3,0,0,15,15,33,,,,,,,,,,,,,526.214839799999,526.214839799999,526.7152453000017,,,,,,,1,003,21,Male,2023-05-02_16h36.18.150,face_recognition_ERP_protocol,2022.2.5,59.91590203427807,
Celebs/39_Jim_Parsons_0010.jpg,non_target,3,0,3,0,0,16,16,0,,,,,,,,,,,,,527.198361399991,527.198361399991,527.7001309999905,,,,,,,1,003,21,Male,2023-05-02_16h36.18.150,face_recognition_ERP_protocol,2022.2.5,59.91590203427807,
Celebs/39_Neil_Patrick_Harris_0010.jpg,non_target,3,0,3,0,0,17,17,94,,,,,,,,,,,,,528.2011214999948,528.2011214999948,528.7013510999968,,,,,,,1,003,21,Male,2023-05-02_16h36.18.150,face_recognition_ERP_protocol,2022.2.5,59.91590203427807,
Celebs/45_Johnny_Depp_0003.jpg,non_target,3,0,3,0,0,18,18,108,,,,,,,,,,,,,529.2014963999973,529.2014963999973,529.7018925999873,,,,,,,1,003,21,Male,2023-05-02_16h36.18.150,face_recognition_ERP_protocol,2022.2.5,59.91590203427807,
Celebs/22_Emma_Watson_0003.jpg,non_target,3,0,3,0,0,19,19,91,,,,,,,,,,,,,530.2026329000073,530.2026329000073,530.7031696999911,,,,,,,1,003,21,Male,2023-05-02_16h36.18.150,face_recognition_ERP_protocol,2022.2.5,59.91590203427807,
Celebs/23_Daniel_Radcliffe_0010.jpg,target,3,0,3,0,0,20,20,15,,,,,,,,,,,,,531.203792299988,531.203792299988,531.7043146000069,,,,,,,1,003,21,Male,2023-05-02_16h36.18.150,face_recognition_ERP_protocol,2022.2.5,59.91590203427807,
Celebs/20_Emma_Watson_0007.jpg,non_target,3,0,3,0,0,21,21,96,,,,,,,,,,,,,532.2049953000096,532.2049953000096,532.705329999997,,,,,,,1,003,21,Male,2023-05-02_16h36.18.150,face_recognition_ERP_protocol,2022.2.5,59.91590203427807,
Celebs/14_Emma_Watson_0008.jpg,non_target,3,0,3,0,0,22,22,36,,,,,,,,,,,,,533.2060688000056,533.2060688000056,533.7064402000105,,,,,,,1,003,21,Male,2023-05-02_16h36.18.150,face_recognition_ERP_protocol,2022.2.5,59.91590203427807,
Celebs/19_Margot_Robbie_0001.jpg,non_target,3,0,3,0,0,23,23,51,,,,,,,,,,,,,534.2072316000122,534.2072316000122,534.7077191999997,,,,,,,1,003,21,Male,2023-05-02_16h36.18.150,face_recognition_ERP_protocol,2022.2.5,59.91590203427807,
Celebs/22_Emma_Watson_0001.jpg,non_target,3,0,3,0,0,24,24,58,,,,,,,,,,,,,535.2083652000001,535.2083652000001,535.7089022999862,,,,,,,1,003,21,Male,2023-05-02_16h36.18.150,face_recognition_ERP_protocol,2022.2.5,59.91590203427807,
Celebs/19_Emma_Stone_0006.jpg,non_target,3,0,3,0,0,25,25,66,,,,,,,,,,,,,536.2094795999874,536.2094795999874,536.7098326999985,,,,,,,1,003,21,Male,2023-05-02_16h36.18.150,face_recognition_ERP_protocol,2022.2.5,59.91590203427807,
Celebs/22_Emma_Stone_0013.jpg,non_target,3,0,3,0,0,26,26,1,,,,,,,,,,,,,537.2106064000109,537.2106064000109,537.7109587999876,,,,,,,1,003,21,Male,2023-05-02_16h36.18.150,face_recognition_ERP_protocol,2022.2.5,59.91590203427807,
Celebs/39_Jim_Parsons_0001.jpg,non_target,3,0,3,0,0,27,27,49,,,,,,,,,,,,,538.211773899995,538.211773899995,538.7120733000047,,,,,,,1,003,21,Male,2023-05-02_16h36.18.150,face_recognition_ERP_protocol,2022.2.5,59.91590203427807,
Celebs/21_Scarlett_Johansson_0007.jpg,non_target,3,0,3,0,0,28,28,118,,,,,,,,,,,,,539.2132727999997,539.2132727999997,539.7136355999974,,,,,,,1,003,21,Male,2023-05-02_16h36.18.150,face_recognition_ERP_protocol,2022.2.5,59.91590203427807,
Celebs/55_Jackie_Chan_0003.jpg,non_target,3,0,3,0,0,29,29,29,,,,,,,,,,,,,540.2140959000099,540.2140959000099,540.7146703999897,,,,,,,1,003,21,Male,2023-05-02_16h36.18.150,face_recognition_ERP_protocol,2022.2.5,59.91590203427807,
Celebs/22_Margot_Robbie_0010.jpg,non_target,3,0,3,0,0,30,30,18,,,,,,,,,,,,,541.2160466999921,541.2160466999921,541.7155000999919,,,,,,,1,003,21,Male,2023-05-02_16h36.18.150,face_recognition_ERP_protocol,2022.2.5,59.91590203427807,
Celebs/26_Scarlett_Johansson_0003.jpg,non_target,3,0,3,0,0,31,31,105,,,,,,,,,,,,,542.1993870000006,542.1993870000006,542.6998579000065,,,,,,,1,003,21,Male,2023-05-02_16h36.18.150,face_recognition_ERP_protocol,2022.2.5,59.91590203427807,
Celebs/18_Daniel_Radcliffe_0002.jpg,target,3,0,3,0,0,32,32,119,,,,,,,,,,,,,543.2010705000139,543.2010705000139,543.7013920999889,,,,,,,1,003,21,Male,2023-05-02_16h36.18.150,face_recognition_ERP_protocol,2022.2.5,59.91590203427807,
Celebs/23_Daniel_Radcliffe_0019.jpg,target,3,0,3,0,0,33,33,6,,,,,,,,,,,,,544.2018466999871,544.2018466999871,544.7021977000113,,,,,,,1,003,21,Male,2023-05-02_16h36.18.150,face_recognition_ERP_protocol,2022.2.5,59.91590203427807,
Celebs/16_Margot_Robbie_0009.jpg,non_target,3,0,3,0,0,34,34,107,,,,,,,,,,,,,545.2031776999938,545.2031776999938,545.7033553000074,,,,,,,1,003,21,Male,2023-05-02_16h36.18.150,face_recognition_ERP_protocol,2022.2.5,59.91590203427807,
Celebs/20_Margot_Robbie_0006.jpg,non_target,3,0,3,0,0,35,35,35,,,,,,,,,,,,,546.2042472999892,546.2042472999892,546.7043974999979,,,,,,,1,003,21,Male,2023-05-02_16h36.18.150,face_recognition_ERP_protocol,2022.2.5,59.91590203427807,
Celebs/22_Emma_Watson_0010.jpg,non_target,3,0,3,0,0,36,36,11,,,,,,,,,,,,,547.2052085000032,547.2052085000032,547.7055874000071,,,,,,,1,003,21,Male,2023-05-02_16h36.18.150,face_recognition_ERP_protocol,2022.2.5,59.91590203427807,
Celebs/43_Will_Smith_0006.jpg,non_target,3,0,3,0,0,37,37,61,,,,,,,,,,,,,548.2062681000098,548.2062681000098,548.7066793999984,,,,,,,1,003,21,Male,2023-05-02_16h36.18.150,face_recognition_ERP_protocol,2022.2.5,59.91590203427807,
Celebs/29_Scarlett_Johansson_0010.jpg,non_target,3,0,3,0,0,38,38,85,,,,,,,,,,,,,549.2075261999853,549.2075261999853,549.7078895999875,,,,,,,1,003,21,Male,2023-05-02_16h36.18.150,face_recognition_ERP_protocol,2022.2.5,59.91590203427807,
Celebs/26_Scarlett_Johansson_0008.jpg,non_target,3,0,3,0,0,39,39,47,,,,,,,,,,,,,550.2085140999989,550.2085140999989,550.7090061999916,,,,,,,1,003,21,Male,2023-05-02_16h36.18.150,face_recognition_ERP_protocol,2022.2.5,59.91590203427807,
Celebs/52_Jackie_Chan_0002.jpg,non_target,3,0,3,0,0,40,40,68,,,,,,,,,,,,,551.2096978999907,551.2096978999907,551.7102111999993,,,,,,,1,003,21,Male,2023-05-02_16h36.18.150,face_recognition_ERP_protocol,2022.2.5,59.91590203427807,
Celebs/50_Johnny_Depp_0004.jpg,non_target,3,0,3,0,0,41,41,39,,,,,,,,,,,,,552.2108873999969,552.2108873999969,552.7112254000094,,,,,,,1,003,21,Male,2023-05-02_16h36.18.150,face_recognition_ERP_protocol,2022.2.5,59.91590203427807,
Celebs/21_Margot_Robbie_0003.jpg,non_target,3,0,3,0,0,42,42,27,,,,,,,,,,,,,553.2119374999893,553.2119374999893,553.7124178000086,,,,,,,1,003,21,Male,2023-05-02_16h36.18.150,face_recognition_ERP_protocol,2022.2.5,59.91590203427807,
Celebs/14_Emma_Watson_0005.jpg,non_target,3,0,3,0,0,43,43,26,,,,,,,,,,,,,554.2131694999989,554.2131694999989,554.7135745999985,,,,,,,1,003,21,Male,2023-05-02_16h36.18.150,face_recognition_ERP_protocol,2022.2.5,59.91590203427807,
Celebs/14_Emma_Watson_0015.jpg,non_target,3,0,3,0,0,44,44,56,,,,,,,,,,,,,555.2143548000022,555.2143548000022,555.7147044999874,,,,,,,1,003,21,Male,2023-05-02_16h36.18.150,face_recognition_ERP_protocol,2022.2.5,59.91590203427807,
Celebs/39_Jim_Parsons_0004.jpg,non_target,3,0,3,0,0,45,45,88,,,,,,,,,,,,,556.2155061000085,556.2155061000085,556.715985399991,,,,,,,1,003,21,Male,2023-05-02_16h36.18.150,face_recognition_ERP_protocol,2022.2.5,59.91590203427807,
Celebs/58_Jackie_Chan_0005.jpg,non_target,3,0,3,0,0,46,46,3,,,,,,,,,,,,,557.1997425000009,557.1997425000009,557.7001702999987,,,,,,,1,003,21,Male,2023-05-02_16h36.18.150,face_recognition_ERP_protocol,2022.2.5,59.91590203427807,
Celebs/17_Emma_Watson_0006.jpg,non_target,3,0,3,0,0,47,47,90,,,,,,,,,,,,,558.200994999992,558.200994999992,558.7013641000085,,,,,,,1,003,21,Male,2023-05-02_16h36.18.150,face_recognition_ERP_protocol,2022.2.5,59.91590203427807,
Celebs/36_Neil_Patrick_Harris_0007.jpg,non_target,3,0,3,0,0,48,48,5,,,,,,,,,,,,,559.2021751999855,559.2021751999855,559.7025038999855,,,,,,,1,003,21,Male,2023-05-02_16h36.18.150,face_recognition_ERP_protocol,2022.2.5,59.91590203427807,
Celebs/44_Will_Smith_0007.jpg,non_target,3,0,3,0,0,49,49,65,,,,,,,,,,,,,560.2033059000096,560.2033059000096,560.7037623999931,,,,,,,1,003,21,Male,2023-05-02_16h36.18.150,face_recognition_ERP_protocol,2022.2.5,59.91590203427807,
Celebs/21_Daniel_Radcliffe_0002.jpg,target,3,0,3,0,0,50,50,60,,,,,,,,,,,,,561.2043679000053,561.2043679000053,561.7047299999977,,,,,,,1,003,21,Male,2023-05-02_16h36.18.150,face_recognition_ERP_protocol,2022.2.5,59.91590203427807,
Celebs/15_Margot_Robbie_0012.jpg,non_target,3,0,3,0,0,51,51,82,,,,,,,,,,,,,562.2054239999852,562.2054239999852,562.7057862000074,,,,,,,1,003,21,Male,2023-05-02_16h36.18.150,face_recognition_ERP_protocol,2022.2.5,59.91590203427807,
Celebs/28_Scarlett_Johansson_0005.jpg,non_target,3,0,3,0,0,52,52,50,,,,,,,,,,,,,563.2066508000134,563.2066508000134,563.7069689999917,,,,,,,1,003,21,Male,2023-05-02_16h36.18.150,face_recognition_ERP_protocol,2022.2.5,59.91590203427807,
Celebs/16_Emma_Stone_0010.jpg,non_target,3,0,3,0,0,53,53,95,,,,,,,,,,,,,564.2077489999938,564.2077489999938,564.7080833000073,,,,,,,1,003,21,Male,2023-05-02_16h36.18.150,face_recognition_ERP_protocol,2022.2.5,59.91590203427807,
Celebs/23_Daniel_Radcliffe_0002.jpg,target,3,0,3,0,0,54,54,77,,,,,,,,,,,,,565.2088846999977,565.2088846999977,565.70928000001,,,,,,,1,003,21,Male,2023-05-02_16h36.18.150,face_recognition_ERP_protocol,2022.2.5,59.91590203427807,
Celebs/50_Johnny_Depp_0018.jpg,non_target,3,0,3,0,0,55,55,24,,,,,,,,,,,,,566.2100284000044,566.2100284000044,566.7104449000035,,,,,,,1,003,21,Male,2023-05-02_16h36.18.150,face_recognition_ERP_protocol,2022.2.5,59.91590203427807,
Celebs/17_Margot_Robbie_0012.jpg,non_target,3,0,3,0,0,56,56,67,,,,,,,,,,,,,567.2112610999902,567.2112610999902,567.7115318999859,,,,,,,1,003,21,Male,2023-05-02_16h36.18.150,face_recognition_ERP_protocol,2022.2.5,59.91590203427807,
Celebs/43_Will_Smith_0010.jpg,non_target,3,0,3,0,0,57,57,22,,,,,,,,,,,,,568.2123658999917,568.2123658999917,568.7126582000055,,,,,,,1,003,21,Male,2023-05-02_16h36.18.150,face_recognition_ERP_protocol,2022.2.5,59.91590203427807,
Celebs/47_Johnny_Depp_0009.jpg,non_target,3,0,3,0,0,58,58,23,,,,,,,,,,,,,569.2132841999992,569.2132841999992,569.7137411999865,,,,,,,1,003,21,Male,2023-05-02_16h36.18.150,face_recognition_ERP_protocol,2022.2.5,59.91590203427807,
Celebs/22_Scarlett_Johansson_0005.jpg,non_target,3,0,3,0,0,59,59,44,,,,,,,,,,,,,570.214482499985,570.214482499985,570.7148957999889,,,,,,,1,003,21,Male,2023-05-02_16h36.18.150,face_recognition_ERP_protocol,2022.2.5,59.91590203427807,
Celebs/44_Will_Smith_0006.jpg,non_target,3,0,3,0,0,60,60,41,,,,,,,,,,,,,571.215600800002,571.215600800002,571.6995469999965,,,,,,,1,003,21,Male,2023-05-02_16h36.18.150,face_recognition_ERP_protocol,2022.2.5,59.91590203427807,
Celebs/17_Margot_Robbie_0014.jpg,non_target,3,0,3,0,0,61,61,114,,,,,,,,,,,,,572.2001298000105,572.2001298000105,572.7007413000101,,,,,,,1,003,21,Male,2023-05-02_16h36.18.150,face_recognition_ERP_protocol,2022.2.5,59.91590203427807,
Celebs/36_Jim_Parsons_0011.jpg,non_target,3,0,3,0,0,62,62,86,,,,,,,,,,,,,573.2011907999986,573.2011907999986,573.7018503999861,,,,,,,1,003,21,Male,2023-05-02_16h36.18.150,face_recognition_ERP_protocol,2022.2.5,59.91590203427807,
Celebs/18_Emma_Watson_0004.jpg,non_target,3,0,3,0,0,63,63,75,,,,,,,,,,,,,574.2022786999878,574.2022786999878,574.7028448999918,,,,,,,1,003,21,Male,2023-05-02_16h36.18.150,face_recognition_ERP_protocol,2022.2.5,59.91590203427807,
Celebs/51_Jackie_Chan_0006.jpg,non_target,3,0,3,0,0,64,64,97,,,,,,,,,,,,,575.2033939000103,575.2033939000103,575.7038989000139,,,,,,,1,003,21,Male,2023-05-02_16h36.18.150,face_recognition_ERP_protocol,2022.2.5,59.91590203427807,
Celebs/55_Jackie_Chan_0008.jpg,non_target,3,0,3,0,0,65,65,92,,,,,,,,,,,,,576.2046063999878,576.2046063999878,576.7050278999959,,,,,,,1,003,21,Male,2023-05-02_16h36.18.150,face_recognition_ERP_protocol,2022.2.5,59.91590203427807,
