image,stimulus,trial_block.thisRepN,trial_block.thisTrialN,trial_block.thisN,trial_block.thisIndex,trials.thisRepN,trials.thisTrialN,trials.thisN,trials.thisIndex,welcome_text.started,instructions_text.started,spacebar_key.started,spacebar_key.keys,spacebar_key.rt,eye_text.started,eye_text.stopped,text.started,text.stopped,closedEyes_text.started,beep.started,closedEyes_text.stopped,trialImage.started,polygon.started,blank_text.started,participant,session,age,gender,date,expName,psychopyVersion,frameRate,
,,,,,,,,,,20.64058659999995,22.676310899999976,22.676310899999976,space,1.334369200000026,,,,,,,,,,,000398,001,444,ggg,2023-06-21_17h58.14.297,face_recognition_ERP_protocol,2022.2.5,60.01115007169338,
Celebs/57_Jackie_Chan_0010.jpg,non_target,0,0,0,0,0,0,0,62,,,,,,24.027856699999973,39.02771439999998,39.02771439999998,54.02744739999997,54.02744739999997,69.02700452999999,69.0270597,69.12708779999997,69.12708779999997,69.56087909999997,000398,001,444,ggg,2023-06-21_17h58.14.297,face_recognition_ERP_protocol,2022.2.5,60.01115007169338,
Celebs/32_Jim_Parsons_0016.jpg,non_target,0,0,0,0,0,1,1,102,,,,,,,,,,,,,70.04650859999998,70.04650859999998,70.54929399999997,000398,001,444,ggg,2023-06-21_17h58.14.297,face_recognition_ERP_protocol,2022.2.5,60.01115007169338,
Celebs/32_Jim_Parsons_0018.jpg,non_target,0,0,0,0,0,2,2,46,,,,,,,,,,,,,71.05060899999995,71.05060899999995,71.55044699999996,000398,001,444,ggg,2023-06-21_17h58.14.297,face_recognition_ERP_protocol,2022.2.5,60.01115007169338,
Celebs/21_Scarlett_Johansson_0007.jpg,non_target,0,0,0,0,0,3,3,118,,,,,,,,,,,,,72.06365539999996,72.06365539999996,72.54746899999998,000398,001,444,ggg,2023-06-21_17h58.14.297,face_recognition_ERP_protocol,2022.2.5,60.01115007169338,
Celebs/51_Jackie_Chan_0006.jpg,non_target,0,0,0,0,0,4,4,97,,,,,,,,,,,,,73.04859289999996,73.04859289999996,73.54856139999998,000398,001,444,ggg,2023-06-21_17h58.14.297,face_recognition_ERP_protocol,2022.2.5,60.01115007169338,
Celebs/50_Johnny_Depp_0010.jpg,non_target,0,0,0,0,0,5,5,115,,,,,,,,,,,,,74.0524911,74.0524911,74.55370529999999,000398,001,444,ggg,2023-06-21_17h58.14.297,face_recognition_ERP_protocol,2022.2.5,60.01115007169338,
Celebs/22_Margot_Robbie_0010.jpg,non_target,0,0,0,0,0,6,6,18,,,,,,,,,,,,,75.0550207,75.0550207,75.55481429999998,000398,001,444,ggg,2023-06-21_17h58.14.297,face_recognition_ERP_protocol,2022.2.5,60.01115007169338,
Celebs/19_Margot_Robbie_0001.jpg,non_target,0,0,0,0,0,7,7,51,,,,,,,,,,,,,76.068174,76.068174,76.55184849999995,000398,001,444,ggg,2023-06-21_17h58.14.297,face_recognition_ERP_protocol,2022.2.5,60.01115007169338,
Celebs/44_Will_Smith_0006.jpg,non_target,0,0,0,0,0,8,8,41,,,,,,,,,,,,,77.05225019999995,77.05225019999995,77.5529358,000398,001,444,ggg,2023-06-21_17h58.14.297,face_recognition_ERP_protocol,2022.2.5,60.01115007169338,
Celebs/55_Jackie_Chan_0008.jpg,non_target,0,0,0,0,0,9,9,92,,,,,,,,,,,,,78.05565539999998,78.05565539999998,78.5580981,000398,001,444,ggg,2023-06-21_17h58.14.297,face_recognition_ERP_protocol,2022.2.5,60.01115007169338,
Celebs/38_Will_Smith_0013.jpg,non_target,0,0,0,0,0,10,10,13,,,,,,,,,,,,,79.07145319999995,79.07145319999995,79.55527129999996,000398,001,444,ggg,2023-06-21_17h58.14.297,face_recognition_ERP_protocol,2022.2.5,60.01115007169338,
Celebs/47_Johnny_Depp_0009.jpg,non_target,0,0,0,0,0,11,11,23,,,,,,,,,,,,,80.05682789999997,80.05682789999997,80.55623059999999,000398,001,444,ggg,2023-06-21_17h58.14.297,face_recognition_ERP_protocol,2022.2.5,60.01115007169338,
Celebs/22_Emma_Stone_0013.jpg,non_target,0,0,0,0,0,12,12,1,,,,,,,,,,,,,81.05765069999995,81.05765069999995,81.55740159999999,000398,001,444,ggg,2023-06-21_17h58.14.297,face_recognition_ERP_protocol,2022.2.5,60.01115007169338,
Celebs/23_Daniel_Radcliffe_0010.jpg,target,0,0,0,0,0,13,13,15,,,,,,,,,,,,,82.06038329999996,82.06038329999996,82.54574679999996,000398,001,444,ggg,2023-06-21_17h58.14.297,face_recognition_ERP_protocol,2022.2.5,60.01115007169338,
Celebs/38_Jim_Parsons_0003.jpg,non_target,0,0,0,0,0,14,14,53,,,,,,,,,,,,,83.04712439999997,83.04712439999997,83.54688039999996,000398,001,444,ggg,2023-06-21_17h58.14.297,face_recognition_ERP_protocol,2022.2.5,60.01115007169338,
Celebs/17_Margot_Robbie_0006.jpg,non_target,0,0,0,0,0,15,15,17,,,,,,,,,,,,,84.06007159999996,84.06007159999996,84.56063489999997,000398,001,444,ggg,2023-06-21_17h58.14.297,face_recognition_ERP_protocol,2022.2.5,60.01115007169338,
Celebs/19_Emma_Stone_0006.jpg,non_target,0,0,0,0,0,16,16,66,,,,,,,,,,,,,85.0473073,85.0473073,85.54909949999995,000398,001,444,ggg,2023-06-21_17h58.14.297,face_recognition_ERP_protocol,2022.2.5,60.01115007169338,
Celebs/24_Emma_Stone_0015.jpg,non_target,0,0,0,0,0,17,17,57,,,,,,,,,,,,,86.05034479999995,86.05034479999995,86.55016629999994,000398,001,444,ggg,2023-06-21_17h58.14.297,face_recognition_ERP_protocol,2022.2.5,60.01115007169338,
Celebs/16_Margot_Robbie_0009.jpg,non_target,0,0,0,0,0,18,18,107,,,,,,,,,,,,,87.05145639999995,87.05145639999995,87.55121789999998,000398,001,444,ggg,2023-06-21_17h58.14.297,face_recognition_ERP_protocol,2022.2.5,60.01115007169338,
Celebs/21_Daniel_Radcliffe_0008.jpg,target,0,0,0,0,0,19,19,16,,,,,,,,,,,,,88.06444899999997,88.06444899999997,88.54827049999994,000398,001,444,ggg,2023-06-21_17h58.14.297,face_recognition_ERP_protocol,2022.2.5,60.01115007169338,
Celebs/48_Johnny_Depp_0003.jpg,non_target,0,0,0,0,0,20,20,55,,,,,,,,,,,,,89.04921069999995,89.04921069999995,89.54938479999998,000398,001,444,ggg,2023-06-21_17h58.14.297,face_recognition_ERP_protocol,2022.2.5,60.01115007169338,
Celebs/34_Neil_Patrick_Harris_0007.jpg,non_target,0,0,0,0,0,21,21,117,,,,,,,,,,,,,90.06661499999996,90.06661499999996,90.55046349999998,000398,001,444,ggg,2023-06-21_17h58.14.297,face_recognition_ERP_protocol,2022.2.5,60.01115007169338,
Celebs/36_Neil_Patrick_Harris_0010.jpg,non_target,0,0,0,0,0,22,22,79,,,,,,,,,,,,,91.05474189999995,91.05474189999995,91.55557239999996,000398,001,444,ggg,2023-06-21_17h58.14.297,face_recognition_ERP_protocol,2022.2.5,60.01115007169338,
Celebs/26_Scarlett_Johansson_0008.jpg,non_target,0,0,0,0,0,23,23,47,,,,,,,,,,,,,92.06885499999999,92.06885499999999,92.55266999999998,000398,001,444,ggg,2023-06-21_17h58.14.297,face_recognition_ERP_protocol,2022.2.5,60.01115007169338,
Celebs/37_Neil_Patrick_Harris_0014.jpg,non_target,0,0,0,0,0,24,24,37,,,,,,,,,,,,,93.05586969999996,93.05586969999996,93.55781379999996,000398,001,444,ggg,2023-06-21_17h58.14.297,face_recognition_ERP_protocol,2022.2.5,60.01115007169338,
Celebs/36_Jim_Parsons_0011.jpg,non_target,0,0,0,0,0,25,25,86,,,,,,,,,,,,,94.0710828,94.0710828,94.5548422,000398,001,444,ggg,2023-06-21_17h58.14.297,face_recognition_ERP_protocol,2022.2.5,60.01115007169338,
Celebs/23_Daniel_Radcliffe_0019.jpg,target,0,0,0,0,0,26,26,6,,,,,,,,,,,,,95.07204039999999,95.07204039999999,95.5559642,000398,001,444,ggg,2023-06-21_17h58.14.297,face_recognition_ERP_protocol,2022.2.5,60.01115007169338,
Celebs/39_Jim_Parsons_0004.jpg,non_target,0,0,0,0,0,27,27,88,,,,,,,,,,,,,96.07313719999996,96.07313719999996,96.55707609999996,000398,001,444,ggg,2023-06-21_17h58.14.297,face_recognition_ERP_protocol,2022.2.5,60.01115007169338,
Celebs/15_Margot_Robbie_0012.jpg,non_target,0,0,0,0,0,28,28,82,,,,,,,,,,,,,97.07426140000001,97.07426140000001,97.55813749999999,000398,001,444,ggg,2023-06-21_17h58.14.297,face_recognition_ERP_protocol,2022.2.5,60.01115007169338,
Celebs/55_Jackie_Chan_0015.jpg,non_target,0,0,0,0,0,29,29,30,,,,,,,,,,,,,98.07537829999995,98.07537829999995,98.55922419999996,000398,001,444,ggg,2023-06-21_17h58.14.297,face_recognition_ERP_protocol,2022.2.5,60.01115007169338,
Celebs/54_Jackie_Chan_0001.jpg,non_target,0,0,0,0,0,30,30,7,,,,,,,,,,,,,99.07644369999997,99.07644369999997,99.56043169999992,000398,001,444,ggg,2023-06-21_17h58.14.297,face_recognition_ERP_protocol,2022.2.5,60.01115007169338,
Celebs/39_Neil_Patrick_Harris_0010.jpg,non_target,0,0,0,0,0,31,31,94,,,,,,,,,,,,,100.07751889999992,100.07751889999992,100.54472119999997,000398,001,444,ggg,2023-06-21_17h58.14.297,face_recognition_ERP_protocol,2022.2.5,60.01115007169338,
Celebs/45_Will_Smith_0014.jpg,non_target,0,0,0,0,0,32,32,59,,,,,,,,,,,,,101.04906539999996,101.04906539999996,101.54988669999994,000398,001,444,ggg,2023-06-21_17h58.14.297,face_recognition_ERP_protocol,2022.2.5,60.01115007169338,
Celebs/21_Daniel_Radcliffe_0002.jpg,target,0,0,0,0,0,33,33,60,,,,,,,,,,,,,102.0631027,102.0631027,102.54693889999993,000398,001,444,ggg,2023-06-21_17h58.14.297,face_recognition_ERP_protocol,2022.2.5,60.01115007169338,
Celebs/20_Emma_Stone_0005.jpg,non_target,0,0,0,0,0,34,34,63,,,,,,,,,,,,,103.0641847,103.0641847,103.54804239999993,000398,001,444,ggg,2023-06-21_17h58.14.297,face_recognition_ERP_protocol,2022.2.5,60.01115007169338,
Celebs/24_Scarlett_Johansson_0011.jpg,non_target,0,0,0,0,0,35,35,100,,,,,,,,,,,,,104.04886449999998,104.04886449999998,104.54911149999992,000398,001,444,ggg,2023-06-21_17h58.14.297,face_recognition_ERP_protocol,2022.2.5,60.01115007169338,
Celebs/35_Neil_Patrick_Harris_0009.jpg,non_target,0,0,0,0,0,36,36,87,,,,,,,,,,,,,105.06631820000001,105.06631820000001,105.55019099999998,000398,001,444,ggg,2023-06-21_17h58.14.297,face_recognition_ERP_protocol,2022.2.5,60.01115007169338,
Celebs/58_Jackie_Chan_0005.jpg,non_target,0,0,0,0,0,37,37,3,,,,,,,,,,,,,106.05432029999992,106.05432029999992,106.55535489999994,000398,001,444,ggg,2023-06-21_17h58.14.297,face_recognition_ERP_protocol,2022.2.5,60.01115007169338,
Celebs/49_Johnny_Depp_0013.jpg,non_target,0,0,0,0,0,38,38,33,,,,,,,,,,,,,107.0685034,107.0685034,107.55237770000002,000398,001,444,ggg,2023-06-21_17h58.14.297,face_recognition_ERP_protocol,2022.2.5,60.01115007169338,
Celebs/31_Neil_Patrick_Harris_0008.jpg,non_target,0,0,0,0,0,39,39,99,,,,,,,,,,,,,108.06966519999997,108.06966519999997,108.55343829999998,000398,001,444,ggg,2023-06-21_17h58.14.297,face_recognition_ERP_protocol,2022.2.5,60.01115007169338,
Celebs/14_Emma_Watson_0013.jpg,non_target,0,0,0,0,0,40,40,20,,,,,,,,,,,,,109.07073020000001,109.07073020000001,109.55460160000001,000398,001,444,ggg,2023-06-21_17h58.14.297,face_recognition_ERP_protocol,2022.2.5,60.01115007169338,
Celebs/20_Margot_Robbie_0006.jpg,non_target,0,0,0,0,0,41,41,35,,,,,,,,,,,,,110.07180790000001,110.07180790000001,110.55566219999997,000398,001,444,ggg,2023-06-21_17h58.14.297,face_recognition_ERP_protocol,2022.2.5,60.01115007169338,
Celebs/48_Johnny_Depp_0001.jpg,non_target,0,0,0,0,0,42,42,106,,,,,,,,,,,,,111.07289439999994,111.07289439999994,111.55677739999993,000398,001,444,ggg,2023-06-21_17h58.14.297,face_recognition_ERP_protocol,2022.2.5,60.01115007169338,
Celebs/17_Daniel_Radcliffe_0007.jpg,target,0,0,0,0,0,43,43,19,,,,,,,,,,,,,112.07401939999994,112.07401939999994,112.55783400000001,000398,001,444,ggg,2023-06-21_17h58.14.297,face_recognition_ERP_protocol,2022.2.5,60.01115007169338,
Celebs/33_Neil_Patrick_Harris_0011.jpg,non_target,0,0,0,0,0,44,44,112,,,,,,,,,,,,,113.07507449999997,113.07507449999997,113.55900939999998,000398,001,444,ggg,2023-06-21_17h58.14.297,face_recognition_ERP_protocol,2022.2.5,60.01115007169338,
Celebs/48_Johnny_Depp_0005.jpg,non_target,0,0,0,0,0,45,45,54,,,,,,,,,,,,,114.07618969999993,114.07618969999993,114.56013149999995,000398,001,444,ggg,2023-06-21_17h58.14.297,face_recognition_ERP_protocol,2022.2.5,60.01115007169338,
Celebs/40_Jim_Parsons_0004.jpg,non_target,0,0,0,0,0,46,46,73,,,,,,,,,,,,,115.07725569999997,115.07725569999997,115.56112439999998,000398,001,444,ggg,2023-06-21_17h58.14.297,face_recognition_ERP_protocol,2022.2.5,60.01115007169338,
Celebs/18_Daniel_Radcliffe_0007.jpg,target,0,0,0,0,0,47,47,81,,,,,,,,,,,,,116.06164699999994,116.06164699999994,116.54553370000002,000398,001,444,ggg,2023-06-21_17h58.14.297,face_recognition_ERP_protocol,2022.2.5,60.01115007169338,
Celebs/39_Neil_Patrick_Harris_0001.jpg,non_target,0,0,0,0,0,48,48,4,,,,,,,,,,,,,117.06277029999995,117.06277029999995,117.54663779999993,000398,001,444,ggg,2023-06-21_17h58.14.297,face_recognition_ERP_protocol,2022.2.5,60.01115007169338,
Celebs/50_Jackie_Chan_0014.jpg,non_target,0,0,0,0,0,49,49,38,,,,,,,,,,,,,118.06400209999998,118.06400209999998,118.54772269999995,000398,001,444,ggg,2023-06-21_17h58.14.297,face_recognition_ERP_protocol,2022.2.5,60.01115007169338,
Celebs/44_Will_Smith_0007.jpg,non_target,0,0,0,0,0,50,50,65,,,,,,,,,,,,,119.06492650000001,119.06492650000001,119.54884629999998,000398,001,444,ggg,2023-06-21_17h58.14.297,face_recognition_ERP_protocol,2022.2.5,60.01115007169338,
Celebs/22_Emma_Watson_0010.jpg,non_target,0,0,0,0,0,51,51,11,,,,,,,,,,,,,120.06606010000002,120.06606010000002,120.54994589999995,000398,001,444,ggg,2023-06-21_17h58.14.297,face_recognition_ERP_protocol,2022.2.5,60.01115007169338,
Celebs/17_Margot_Robbie_0014.jpg,non_target,0,0,0,0,0,52,52,114,,,,,,,,,,,,,121.05473319999993,121.05473319999993,121.55507069999993,000398,001,444,ggg,2023-06-21_17h58.14.297,face_recognition_ERP_protocol,2022.2.5,60.01115007169338,
,,,,,,,,,,,,,,,,,,,,,,122.06822529999994,122.06822529999994,122.55208529999999,,,,,,,,,
