image,stimulus,trial_block.thisRepN,trial_block.thisTrialN,trial_block.thisN,trial_block.thisIndex,trials.thisRepN,trials.thisTrialN,trials.thisN,trials.thisIndex,welcome_text.started,instructions_text.started,spacebar_key.started,spacebar_key.keys,spacebar_key.rt,eye_text.started,text.started,closedEyes_text.started,trialImage.started,polygon.started,blank_text.started,blank_text.stopped,trialBlockText.started,new_trialblock.started,new_trialblock.keys,new_trialblock.rt,participant,session,age,gender,date,expName,psychopyVersion,frameRate,
,,,,,,,,,,18.419583500013687,20.423250199994072,20.423250199994072,space,1.4642841999884695,,,,,,,,,,,,000547wwwwwww,001,,,2023-12-10_18h35.48.872,face_recognition_ERP_protocol,2022.2.5,59.89020925510503,
Celebs/38_Jim_Parsons_0003.jpg,non_target,0,0,0,0,0,0,0,52,,,,,,21.908734400058165,23.926934899995103,25.91283389995806,28.01609739998821,28.01609739998821,28.414986600051634,,,,,,000547wwwwwww,001,,,2023-12-10_18h35.48.872,face_recognition_ERP_protocol,2022.2.5,59.89020925510503,
Celebs/19_Emma_Stone_0006.jpg,non_target,0,0,0,0,0,1,1,65,,,,,,,,,28.932245300034992,28.932245300034992,29.41610579995904,,,,,,000547wwwwwww,001,,,2023-12-10_18h35.48.872,face_recognition_ERP_protocol,2022.2.5,59.89020925510503,
Celebs/15_Margot_Robbie_0005.jpg,non_target,0,0,0,0,0,2,2,78,,,,,,,,,29.935820000013337,29.935820000013337,30.41723230003845,,,,,,000547wwwwwww,001,,,2023-12-10_18h35.48.872,face_recognition_ERP_protocol,2022.2.5,59.89020925510503,
Celebs/48_Johnny_Depp_0001.jpg,non_target,0,0,0,0,0,3,3,104,,,,,,,,,30.934131899964996,30.934131899964996,31.418021999998018,,,,,,000547wwwwwww,001,,,2023-12-10_18h35.48.872,face_recognition_ERP_protocol,2022.2.5,59.89020925510503,
Celebs/14_Emma_Watson_0005.jpg,non_target,0,0,0,0,0,4,4,25,,,,,,,,,31.936933599994518,31.936933599994518,32.419451700057834,,,,,,000547wwwwwww,001,,,2023-12-10_18h35.48.872,face_recognition_ERP_protocol,2022.2.5,59.89020925510503,
Celebs/44_Will_Smith_0015.jpg,non_target,0,0,0,0,0,5,5,99,,,,,,,,,32.93784919998143,32.93784919998143,33.42057059996296,,,,,,000547wwwwwww,001,,,2023-12-10_18h35.48.872,face_recognition_ERP_protocol,2022.2.5,59.89020925510503,
Celebs/40_Jim_Parsons_0015.jpg,non_target,0,0,0,0,0,6,6,44,,,,,,,,,33.93719920003787,33.93719920003787,34.421584800002165,,,,,,000547wwwwwww,001,,,2023-12-10_18h35.48.872,face_recognition_ERP_protocol,2022.2.5,59.89020925510503,
Celebs/42_Will_Smith_0012.jpg,non_target,0,0,0,0,0,7,7,63,,,,,,,,,34.93814680003561,34.93814680003561,35.42540549999103,,,,,,000547wwwwwww,001,,,2023-12-10_18h35.48.872,face_recognition_ERP_protocol,2022.2.5,59.89020925510503,
Celebs/58_Jackie_Chan_0005.jpg,non_target,0,0,0,0,0,8,8,3,,,,,,,,,35.93938750005327,35.93938750005327,,,,,,,000547wwwwwww,001,,,2023-12-10_18h35.48.872,face_recognition_ERP_protocol,2022.2.5,59.89020925510503,
Celebs/48_Johnny_Depp_0005.jpg,non_target,0,0,0,0,0,9,9,53,,,,,,,,,,,,,,,,,000547wwwwwww,001,,,2023-12-10_18h35.48.872,face_recognition_ERP_protocol,2022.2.5,59.89020925510503,
Celebs/34_Neil_Patrick_Harris_0004.jpg,non_target,0,0,0,0,0,10,10,102,,,,,,,,,,,38.61011380003765,,,,,,000547wwwwwww,001,,,2023-12-10_18h35.48.872,face_recognition_ERP_protocol,2022.2.5,59.89020925510503,
Celebs/19_Margot_Robbie_0001.jpg,non_target,0,0,0,0,0,11,11,50,,,,,,,,,38.94357250002213,38.94357250002213,39.42755909997504,,,,,,000547wwwwwww,001,,,2023-12-10_18h35.48.872,face_recognition_ERP_protocol,2022.2.5,59.89020925510503,
Celebs/18_Emma_Stone_0016.jpg,non_target,0,0,0,0,0,12,12,51,,,,,,,,,39.94725670001935,39.94725670001935,40.42879839998204,,,,,,000547wwwwwww,001,,,2023-12-10_18h35.48.872,face_recognition_ERP_protocol,2022.2.5,59.89020925510503,
Celebs/57_Jackie_Chan_0008.jpg,non_target,0,0,0,0,0,13,13,71,,,,,,,,,40.94471239997074,40.94471239997074,41.429546499974094,,,,,,000547wwwwwww,001,,,2023-12-10_18h35.48.872,face_recognition_ERP_protocol,2022.2.5,59.89020925510503,
Celebs/21_Emma_Stone_0002.jpg,non_target,0,0,0,0,0,14,14,101,,,,,,,,,41.94774600001983,41.94774600001983,42.430741899996065,,,,,,000547wwwwwww,001,,,2023-12-10_18h35.48.872,face_recognition_ERP_protocol,2022.2.5,59.89020925510503,
Celebs/21_Daniel_Radcliffe_0009.jpg,target,0,0,0,0,0,15,15,81,,,,,,,,,42.94810250005685,42.94810250005685,43.431504099979065,,,,,,000547wwwwwww,001,,,2023-12-10_18h35.48.872,face_recognition_ERP_protocol,2022.2.5,59.89020925510503,
Celebs/40_Will_Smith_0012.jpg,non_target,0,0,0,0,0,16,16,108,,,,,,,,,43.94892490003258,43.94892490003258,44.41633489995729,,,,,,000547wwwwwww,001,,,2023-12-10_18h35.48.872,face_recognition_ERP_protocol,2022.2.5,59.89020925510503,
Celebs/21_Daniel_Radcliffe_0002.jpg,target,0,0,0,0,0,17,17,59,,,,,,,,,44.93562700005714,44.93562700005714,45.41691260004882,,,,,,000547wwwwwww,001,,,2023-12-10_18h35.48.872,face_recognition_ERP_protocol,2022.2.5,59.89020925510503,
Celebs/22_Emma_Watson_0010.jpg,non_target,0,0,0,0,0,18,18,10,,,,,,,,,45.934256199980155,45.934256199980155,46.41849419998471,,,,,,000547wwwwwww,001,,,2023-12-10_18h35.48.872,face_recognition_ERP_protocol,2022.2.5,59.89020925510503,
Celebs/29_Scarlett_Johansson_0010.jpg,non_target,0,0,0,0,0,19,19,83,,,,,,,,,46.93751850002445,46.93751850002445,47.419227699982,,,,,,000547wwwwwww,001,,,2023-12-10_18h35.48.872,face_recognition_ERP_protocol,2022.2.5,59.89020925510503,
Celebs/21_Daniel_Radcliffe_0008.jpg,target,0,0,0,0,0,20,20,15,,,,,,,,,47.93570000003092,47.93570000003092,48.42053050000686,,,,,,000547wwwwwww,001,,,2023-12-10_18h35.48.872,face_recognition_ERP_protocol,2022.2.5,59.89020925510503,
Celebs/48_Johnny_Depp_0003.jpg,non_target,0,0,0,0,0,21,21,54,,,,,,,,,48.93919339997228,48.93919339997228,49.4215357999783,,,,,,000547wwwwwww,001,,,2023-12-10_18h35.48.872,face_recognition_ERP_protocol,2022.2.5,59.89020925510503,
Celebs/21_Margot_Robbie_0003.jpg,non_target,0,0,0,0,0,22,22,26,,,,,,,,,49.93858930002898,49.93858930002898,50.422173799946904,,,,,,000547wwwwwww,001,,,2023-12-10_18h35.48.872,face_recognition_ERP_protocol,2022.2.5,59.89020925510503,
Celebs/19_Margot_Robbie_0004.jpg,non_target,0,0,0,0,0,23,23,41,,,,,,,,,50.93912710004952,50.93912710004952,51.42322240001522,,,,,,000547wwwwwww,001,,,2023-12-10_18h35.48.872,face_recognition_ERP_protocol,2022.2.5,59.89020925510503,
Celebs/47_Johnny_Depp_0004.jpg,non_target,0,0,0,0,0,24,24,75,,,,,,,,,51.94356200005859,51.94356200005859,52.424657800002024,,,,,,000547wwwwwww,001,,,2023-12-10_18h35.48.872,face_recognition_ERP_protocol,2022.2.5,59.89020925510503,
Celebs/55_Jackie_Chan_0003.jpg,non_target,0,0,0,0,0,25,25,28,,,,,,,,,52.94437130005099,52.94437130005099,53.42573989997618,,,,,,000547wwwwwww,001,,,2023-12-10_18h35.48.872,face_recognition_ERP_protocol,2022.2.5,59.89020925510503,
Celebs/50_Jackie_Chan_0014.jpg,non_target,0,0,0,0,0,26,26,37,,,,,,,,,53.945462699979544,53.945462699979544,54.427073500002734,,,,,,000547wwwwwww,001,,,2023-12-10_18h35.48.872,face_recognition_ERP_protocol,2022.2.5,59.89020925510503,
Celebs/26_Scarlett_Johansson_0003.jpg,non_target,0,0,0,0,0,27,27,103,,,,,,,,,54.943030999973416,54.943030999973416,55.428525600000285,,,,,,000547wwwwwww,001,,,2023-12-10_18h35.48.872,face_recognition_ERP_protocol,2022.2.5,59.89020925510503,
Celebs/43_Will_Smith_0007.jpg,non_target,0,0,0,0,0,28,28,73,,,,,,,,,55.94810379995033,55.94810379995033,56.429280500044115,,,,,,000547wwwwwww,001,,,2023-12-10_18h35.48.872,face_recognition_ERP_protocol,2022.2.5,59.89020925510503,
Celebs/18_Daniel_Radcliffe_0007.jpg,target,0,0,0,0,0,29,29,79,,,,,,,,,56.94559120002668,56.94559120002668,57.430358799989335,,,,,,000547wwwwwww,001,,,2023-12-10_18h35.48.872,face_recognition_ERP_protocol,2022.2.5,59.89020925510503,
Celebs/35_Neil_Patrick_Harris_0009.jpg,non_target,0,0,0,0,0,30,30,85,,,,,,,,,57.93044679996092,57.93044679996092,58.43156930000987,,,,,,000547wwwwwww,001,,,2023-12-10_18h35.48.872,face_recognition_ERP_protocol,2022.2.5,59.89020925510503,
Celebs/37_Neil_Patrick_Harris_0014.jpg,non_target,0,0,0,0,0,31,31,36,,,,,,,,,58.948384599993005,58.948384599993005,59.43211659998633,,,,,,000547wwwwwww,001,,,2023-12-10_18h35.48.872,face_recognition_ERP_protocol,2022.2.5,59.89020925510503,
Celebs/45_Will_Smith_0014.jpg,non_target,0,0,0,0,0,32,32,58,,,,,,,,,59.93256059999112,59.93256059999112,60.41675730003044,,,,,,000547wwwwwww,001,,,2023-12-10_18h35.48.872,face_recognition_ERP_protocol,2022.2.5,59.89020925510503,
Celebs/24_Scarlett_Johansson_0011.jpg,non_target,0,0,0,0,0,33,33,98,,,,,,,,,60.934164399979636,60.934164399979636,61.41798090003431,,,,,,000547wwwwwww,001,,,2023-12-10_18h35.48.872,face_recognition_ERP_protocol,2022.2.5,59.89020925510503,
Celebs/21_Daniel_Radcliffe_0012.jpg,target,0,0,0,0,0,34,34,115,,,,,,,,,61.93473590002395,61.93473590002395,62.41931959998328,,,,,,000547wwwwwww,001,,,2023-12-10_18h35.48.872,face_recognition_ERP_protocol,2022.2.5,59.89020925510503,
Celebs/16_Emma_Stone_0014.jpg,non_target,0,0,0,0,0,35,35,39,,,,,,,,,62.93967180000618,62.93967180000618,63.42004979995545,,,,,,000547wwwwwww,001,,,2023-12-10_18h35.48.872,face_recognition_ERP_protocol,2022.2.5,59.89020925510503,
Celebs/45_Will_Smith_0010.jpg,non_target,0,0,0,0,0,36,36,68,,,,,,,,,63.93952410004567,63.93952410004567,64.42113370005973,,,,,,000547wwwwwww,001,,,2023-12-10_18h35.48.872,face_recognition_ERP_protocol,2022.2.5,59.89020925510503,
Celebs/43_Will_Smith_0006.jpg,non_target,0,0,0,0,0,37,37,60,,,,,,,,,64.94013400003314,64.94013400003314,65.42225689999759,,,,,,000547wwwwwww,001,,,2023-12-10_18h35.48.872,face_recognition_ERP_protocol,2022.2.5,59.89020925510503,
Celebs/17_Emma_Watson_0006.jpg,non_target,0,0,0,0,0,38,38,88,,,,,,,,,65.93945509998593,65.93945509998593,66.42322710005101,,,,,,000547wwwwwww,001,,,2023-12-10_18h35.48.872,face_recognition_ERP_protocol,2022.2.5,59.89020925510503,
Celebs/23_Daniel_Radcliffe_0019.jpg,target,0,0,0,0,0,39,39,6,,,,,,,,,66.9399125999771,66.9399125999771,67.42440899997018,,,,,,000547wwwwwww,001,,,2023-12-10_18h35.48.872,face_recognition_ERP_protocol,2022.2.5,59.89020925510503,
Celebs/50_Johnny_Depp_0010.jpg,non_target,0,0,0,0,0,40,40,113,,,,,,,,,67.94093929999508,67.94093929999508,68.42563289997634,,,,,,000547wwwwwww,001,,,2023-12-10_18h35.48.872,face_recognition_ERP_protocol,2022.2.5,59.89020925510503,
Celebs/16_Emma_Stone_0008.jpg,non_target,0,0,0,0,0,41,41,47,,,,,,,,,68.9459857000038,68.9459857000038,69.42652750003617,,,,,,000547wwwwwww,001,,,2023-12-10_18h35.48.872,face_recognition_ERP_protocol,2022.2.5,59.89020925510503,
Celebs/33_Jim_Parsons_0011.jpg,non_target,0,0,0,0,0,42,42,33,,,,,,,,,69.94603959994856,69.94603959994856,70.42812409996986,,,,,,000547wwwwwww,001,,,2023-12-10_18h35.48.872,face_recognition_ERP_protocol,2022.2.5,59.89020925510503,
Celebs/20_Margot_Robbie_0006.jpg,non_target,0,0,0,0,0,43,43,34,,,,,,,,,70.94436510000378,70.94436510000378,71.42870369995944,,,,,,000547wwwwwww,001,,,2023-12-10_18h35.48.872,face_recognition_ERP_protocol,2022.2.5,59.89020925510503,
Celebs/20_Scarlett_Johansson_0011.jpg,non_target,0,0,0,0,0,44,44,107,,,,,,,,,71.94620060001034,71.94620060001034,72.43032970000058,,,,,,000547wwwwwww,001,,,2023-12-10_18h35.48.872,face_recognition_ERP_protocol,2022.2.5,59.89020925510503,
Celebs/20_Emma_Stone_0005.jpg,non_target,0,0,0,0,0,45,45,62,,,,,,,,,72.9458217000356,72.9458217000356,73.4313202999765,,,,,,000547wwwwwww,001,,,2023-12-10_18h35.48.872,face_recognition_ERP_protocol,2022.2.5,59.89020925510503,
Celebs/23_Daniel_Radcliffe_0002.jpg,target,0,0,0,0,0,46,46,118,,,,,,,,,73.94782480003778,73.94782480003778,74.4323661000235,,,,,,000547wwwwwww,001,,,2023-12-10_18h35.48.872,face_recognition_ERP_protocol,2022.2.5,59.89020925510503,
Celebs/50_Jackie_Chan_0012.jpg,non_target,0,0,0,0,0,47,47,42,,,,,,,,,74.93206240003929,74.93206240003929,75.41647729999386,,,,,,000547wwwwwww,001,,,2023-12-10_18h35.48.872,face_recognition_ERP_protocol,2022.2.5,59.89020925510503,
Celebs/28_Scarlett_Johansson_0005.jpg,non_target,0,0,0,0,0,48,48,49,,,,,,,,,75.93294830003288,75.93294830003288,76.4177143999841,,,,,,000547wwwwwww,001,,,2023-12-10_18h35.48.872,face_recognition_ERP_protocol,2022.2.5,59.89020925510503,
Celebs/32_Jim_Parsons_0018.jpg,non_target,0,0,0,0,0,49,49,45,,,,,,,,,76.93421920004766,76.93421920004766,77.41875640000217,,,,,,000547wwwwwww,001,,,2023-12-10_18h35.48.872,face_recognition_ERP_protocol,2022.2.5,59.89020925510503,
Celebs/55_Jackie_Chan_0015.jpg,non_target,0,0,0,0,0,50,50,29,,,,,,,,,77.9355795000447,77.9355795000447,78.42046249995474,,,,,,000547wwwwwww,001,,,2023-12-10_18h35.48.872,face_recognition_ERP_protocol,2022.2.5,59.89020925510503,
Celebs/17_Margot_Robbie_0014.jpg,non_target,0,0,0,0,0,51,51,112,,,,,,,,,78.93668829998933,78.93668829998933,79.42099570005666,,,,,,000547wwwwwww,001,,,2023-12-10_18h35.48.872,face_recognition_ERP_protocol,2022.2.5,59.89020925510503,
Celebs/16_Margot_Robbie_0009.jpg,non_target,0,0,0,0,0,52,52,105,,,,,,,,,79.94036380003672,79.94036380003672,80.42216379998717,,,,,,000547wwwwwww,001,,,2023-12-10_18h35.48.872,face_recognition_ERP_protocol,2022.2.5,59.89020925510503,
Celebs/14_Emma_Watson_0004.jpg,non_target,0,0,0,0,0,53,53,13,,,,,,,,,80.94041180005297,80.94041180005297,81.42306329996791,,,,,,000547wwwwwww,001,,,2023-12-10_18h35.48.872,face_recognition_ERP_protocol,2022.2.5,59.89020925510503,
Celebs/25_Scarlett_Johansson_0010.jpg,non_target,0,0,0,0,0,54,54,31,,,,,,,,,81.94028840004466,81.94028840004466,82.42411490005907,,,,,,000547wwwwwww,001,,,2023-12-10_18h35.48.872,face_recognition_ERP_protocol,2022.2.5,59.89020925510503,
Celebs/50_Johnny_Depp_0004.jpg,non_target,0,0,0,0,0,55,55,38,,,,,,,,,82.9435202999739,82.9435202999739,83.42514800000936,,,,,,000547wwwwwww,001,,,2023-12-10_18h35.48.872,face_recognition_ERP_protocol,2022.2.5,59.89020925510503,
Celebs/45_Johnny_Depp_0003.jpg,non_target,0,0,0,0,0,56,56,106,,,,,,,,,83.94461440003943,83.94461440003943,84.42636429995764,,,,,,000547wwwwwww,001,,,2023-12-10_18h35.48.872,face_recognition_ERP_protocol,2022.2.5,59.89020925510503,
Celebs/37_Neil_Patrick_Harris_0010.jpg,non_target,0,0,0,0,0,57,57,91,,,,,,,,,84.94557290000375,84.94557290000375,85.42704189999495,,,,,,000547wwwwwww,001,,,2023-12-10_18h35.48.872,face_recognition_ERP_protocol,2022.2.5,59.89020925510503,
Celebs/14_Emma_Watson_0015.jpg,non_target,0,0,0,0,0,58,58,55,,,,,,,,,85.94474920001812,85.94474920001812,86.42806920001749,,,,,,000547wwwwwww,001,,,2023-12-10_18h35.48.872,face_recognition_ERP_protocol,2022.2.5,59.89020925510503,
Celebs/24_Emma_Stone_0015.jpg,non_target,0,0,0,0,0,59,59,56,,,,,,,,,86.94536769995466,86.94536769995466,87.43002470000647,,,,,,000547wwwwwww,001,,,2023-12-10_18h35.48.872,face_recognition_ERP_protocol,2022.2.5,59.89020925510503,
Celebs/24_Scarlett_Johansson_0001.jpg,non_target,0,0,0,0,0,60,60,9,,,,,,,,,87.94852009997703,87.94852009997703,88.4307928000344,,,,,,000547wwwwwww,001,,,2023-12-10_18h35.48.872,face_recognition_ERP_protocol,2022.2.5,59.89020925510503,
Celebs/47_Johnny_Depp_0003.jpg,non_target,0,0,0,0,0,61,61,8,,,,,,,,,88.94696059997659,88.94696059997659,89.43150469998363,,,,,,000547wwwwwww,001,,,2023-12-10_18h35.48.872,face_recognition_ERP_protocol,2022.2.5,59.89020925510503,
Celebs/33_Neil_Patrick_Harris_0011.jpg,non_target,0,0,0,0,0,62,62,110,,,,,,,,,89.93142619996797,89.93142619996797,90.41649810003582,,,,,,000547wwwwwww,001,,,2023-12-10_18h35.48.872,face_recognition_ERP_protocol,2022.2.5,59.89020925510503,
Celebs/15_Margot_Robbie_0012.jpg,non_target,0,0,0,0,0,63,63,80,,,,,,,,,90.9329714999767,90.9329714999767,91.41731930000242,,,,,,000547wwwwwww,001,,,2023-12-10_18h35.48.872,face_recognition_ERP_protocol,2022.2.5,59.89020925510503,
Celebs/22_Scarlett_Johansson_0005.jpg,non_target,0,0,0,0,0,64,64,43,,,,,,,,,91.93682079995051,91.93682079995051,92.41854280000553,,,,,,000547wwwwwww,001,,,2023-12-10_18h35.48.872,face_recognition_ERP_protocol,2022.2.5,59.89020925510503,
Celebs/16_Emma_Stone_0010.jpg,non_target,0,0,0,0,0,65,65,93,,,,,,,,,92.93465629999992,92.93465629999992,93.42006090003997,,,,,,000547wwwwwww,001,,,2023-12-10_18h35.48.872,face_recognition_ERP_protocol,2022.2.5,59.89020925510503,
Celebs/17_Daniel_Radcliffe_0007.jpg,target,0,0,0,0,0,66,66,18,,,,,,,,,93.93630119995214,93.93630119995214,94.42052349995356,,,,,,000547wwwwwww,001,,,2023-12-10_18h35.48.872,face_recognition_ERP_protocol,2022.2.5,59.89020925510503,
Celebs/21_Emma_Stone_0003.jpg,non_target,0,0,0,0,0,67,67,24,,,,,,,,,94.93871629994828,94.93871629994828,95.42182499996852,,,,,,000547wwwwwww,001,,,2023-12-10_18h35.48.872,face_recognition_ERP_protocol,2022.2.5,59.89020925510503,
Celebs/36_Jim_Parsons_0011.jpg,non_target,0,0,0,0,0,68,68,84,,,,,,,,,95.94035469996743,95.94035469996743,96.4226935999468,,,,,,000547wwwwwww,001,,,2023-12-10_18h35.48.872,face_recognition_ERP_protocol,2022.2.5,59.89020925510503,
Celebs/51_Jackie_Chan_0006.jpg,non_target,0,0,0,0,0,69,69,95,,,,,,,,,96.9235782000469,96.9235782000469,97.423813899979,,,,,,000547wwwwwww,001,,,2023-12-10_18h35.48.872,face_recognition_ERP_protocol,2022.2.5,59.89020925510503,
Celebs/38_Will_Smith_0013.jpg,non_target,0,0,0,0,0,70,70,12,,,,,,,,,97.94064909999724,97.94064909999724,98.42529659997672,,,,,,000547wwwwwww,001,,,2023-12-10_18h35.48.872,face_recognition_ERP_protocol,2022.2.5,59.89020925510503,
Celebs/44_Will_Smith_0007.jpg,non_target,0,0,0,0,0,71,71,64,,,,,,,,,98.94142509996891,98.94142509996891,99.4269348999951,,,,,,000547wwwwwww,001,,,2023-12-10_18h35.48.872,face_recognition_ERP_protocol,2022.2.5,59.89020925510503,
Celebs/38_Neil_Patrick_Harris_0006.jpg,non_target,0,0,0,0,0,72,72,30,,,,,,,,,99.94584249996115,99.94584249996115,100.4273080000421,,,,,,000547wwwwwww,001,,,2023-12-10_18h35.48.872,face_recognition_ERP_protocol,2022.2.5,59.89020925510503,
Celebs/22_Emma_Watson_0001.jpg,non_target,0,0,0,0,0,73,73,57,,,,,,,,,100.94607710000128,100.94607710000128,101.42919940000866,,,,,,000547wwwwwww,001,,,2023-12-10_18h35.48.872,face_recognition_ERP_protocol,2022.2.5,59.89020925510503,
Celebs/17_Margot_Robbie_0012.jpg,non_target,0,0,0,0,0,74,74,66,,,,,,,,,101.94821900001261,101.94821900001261,102.42938940005843,,,,,,000547wwwwwww,001,,,2023-12-10_18h35.48.872,face_recognition_ERP_protocol,2022.2.5,59.89020925510503,
Celebs/23_Daniel_Radcliffe_0010.jpg,target,0,0,0,0,0,75,75,14,,,,,,,,,102.947251399979,102.947251399979,103.43049439997412,,,,,,000547wwwwwww,001,,,2023-12-10_18h35.48.872,face_recognition_ERP_protocol,2022.2.5,59.89020925510503,
Celebs/26_Scarlett_Johansson_0008.jpg,non_target,0,0,0,0,0,76,76,46,,,,,,,,,103.94931709999219,103.94931709999219,104.43154210003559,,,,,,000547wwwwwww,001,,,2023-12-10_18h35.48.872,face_recognition_ERP_protocol,2022.2.5,59.89020925510503,
Celebs/18_Daniel_Radcliffe_0008.jpg,target,0,0,0,0,0,77,77,27,,,,,,,,,104.94828390004113,104.94828390004113,105.41559690004215,,,,,,000547wwwwwww,001,,,2023-12-10_18h35.48.872,face_recognition_ERP_protocol,2022.2.5,59.89020925510503,
Celebs/36_Neil_Patrick_Harris_0007.jpg,non_target,0,0,0,0,0,78,78,5,,,,,,,,,105.93257209996227,105.93257209996227,106.41684019996319,,,,,,000547wwwwwww,001,,,2023-12-10_18h35.48.872,face_recognition_ERP_protocol,2022.2.5,59.89020925510503,
Celebs/20_Margot_Robbie_0004.jpg,non_target,0,0,0,0,0,79,79,114,,,,,,,,,106.93339909997303,106.93339909997303,107.41813620005269,,,,,,000547wwwwwww,001,,,2023-12-10_18h35.48.872,face_recognition_ERP_protocol,2022.2.5,59.89020925510503,
Celebs/22_Emma_Stone_0013.jpg,non_target,0,0,0,0,0,80,80,1,,,,,,,,,107.93775919999462,107.93775919999462,108.41927359998226,,,,,,000547wwwwwww,001,,,2023-12-10_18h35.48.872,face_recognition_ERP_protocol,2022.2.5,59.89020925510503,
Celebs/49_Johnny_Depp_0013.jpg,non_target,0,0,0,0,0,81,81,32,,,,,,,,,108.93813699996099,108.93813699996099,109.4205801000353,,,,,,000547wwwwwww,001,,,2023-12-10_18h35.48.872,face_recognition_ERP_protocol,2022.2.5,59.89020925510503,
Celebs/20_Emma_Watson_0007.jpg,non_target,0,0,0,0,0,82,82,94,,,,,,,,,109.93739720003214,109.93739720003214,110.42214429995511,,,,,,000547wwwwwww,001,,,2023-12-10_18h35.48.872,face_recognition_ERP_protocol,2022.2.5,59.89020925510503,
Celebs/32_Jim_Parsons_0016.jpg,non_target,0,0,0,0,0,83,83,100,,,,,,,,,110.93962770001963,110.93962770001963,111.42242309998255,,,,,,000547wwwwwww,001,,,2023-12-10_18h35.48.872,face_recognition_ERP_protocol,2022.2.5,59.89020925510503,
Celebs/31_Neil_Patrick_Harris_0008.jpg,non_target,0,0,0,0,0,84,84,97,,,,,,,,,111.93902499997057,111.93902499997057,112.42321849998552,,,,,,000547wwwwwww,001,,,2023-12-10_18h35.48.872,face_recognition_ERP_protocol,2022.2.5,59.89020925510503,
Celebs/36_Neil_Patrick_Harris_0010.jpg,non_target,0,0,0,0,0,85,85,77,,,,,,,,,112.94317710003816,112.94317710003816,113.4242796000326,,,,,,000547wwwwwww,001,,,2023-12-10_18h35.48.872,face_recognition_ERP_protocol,2022.2.5,59.89020925510503,
Celebs/44_Will_Smith_0006.jpg,non_target,0,0,0,0,0,86,86,40,,,,,,,,,113.94145739998203,113.94145739998203,114.42537620000076,,,,,,000547wwwwwww,001,,,2023-12-10_18h35.48.872,face_recognition_ERP_protocol,2022.2.5,59.89020925510503,
Celebs/47_Johnny_Depp_0009.jpg,non_target,0,0,0,0,0,87,87,22,,,,,,,,,114.94605599995703,114.94605599995703,115.42784779996146,,,,,,000547wwwwwww,001,,,2023-12-10_18h35.48.872,face_recognition_ERP_protocol,2022.2.5,59.89020925510503,
Celebs/22_Margot_Robbie_0010.jpg,non_target,0,0,0,0,0,88,88,17,,,,,,,,,115.94622719998006,115.94622719998006,116.42796510003973,,,,,,000547wwwwwww,001,,,2023-12-10_18h35.48.872,face_recognition_ERP_protocol,2022.2.5,59.89020925510503,
Celebs/55_Jackie_Chan_0008.jpg,non_target,0,0,0,0,0,89,89,90,,,,,,,,,116.94408869999461,116.94408869999461,117.42968449997716,,,,,,000547wwwwwww,001,,,2023-12-10_18h35.48.872,face_recognition_ERP_protocol,2022.2.5,59.89020925510503,
Celebs/18_Emma_Watson_0004.jpg,non_target,0,0,0,0,0,90,90,74,,,,,,,,,117.94636049994733,117.94636049994733,118.43066880002152,,,,,,000547wwwwwww,001,,,2023-12-10_18h35.48.872,face_recognition_ERP_protocol,2022.2.5,59.89020925510503,
Celebs/50_Johnny_Depp_0018.jpg,non_target,0,0,0,0,0,91,91,23,,,,,,,,,118.94936850003432,118.94936850003432,119.4151194000151,119.93319260003045,,,,,000547wwwwwww,001,,,2023-12-10_18h35.48.872,face_recognition_ERP_protocol,2022.2.5,59.89020925510503,
Celebs/16_Emma_Stone_0012.jpg,non_target,0,0,0,0,0,92,92,69,,,,,,,,,119.93319260003045,119.93319260003045,120.41590080002788,,,,,,000547wwwwwww,001,,,2023-12-10_18h35.48.872,face_recognition_ERP_protocol,2022.2.5,59.89020925510503,
Celebs/39_Neil_Patrick_Harris_0010.jpg,non_target,0,0,0,0,0,93,93,92,,,,,,,,,120.93273919995409,120.93273919995409,121.41703430004418,,,,,,000547wwwwwww,001,,,2023-12-10_18h35.48.872,face_recognition_ERP_protocol,2022.2.5,59.89020925510503,
Celebs/39_Jim_Parsons_0010.jpg,non_target,0,0,0,0,0,94,94,0,,,,,,,,,121.93639130005613,121.93639130005613,122.41849199996796,,,,,,000547wwwwwww,001,,,2023-12-10_18h35.48.872,face_recognition_ERP_protocol,2022.2.5,59.89020925510503,
Celebs/40_Jim_Parsons_0004.jpg,non_target,0,0,0,0,0,95,95,72,,,,,,,,,122.93704929994419,122.93704929994419,123.4192840999458,,,,,,000547wwwwwww,001,,,2023-12-10_18h35.48.872,face_recognition_ERP_protocol,2022.2.5,59.89020925510503,
Celebs/39_Jim_Parsons_0001.jpg,non_target,0,0,0,0,0,96,96,48,,,,,,,,,123.93510090000927,123.93510090000927,124.4201590999728,,,,,,000547wwwwwww,001,,,2023-12-10_18h35.48.872,face_recognition_ERP_protocol,2022.2.5,59.89020925510503,
Celebs/50_Johnny_Depp_0008.jpg,non_target,0,0,0,0,0,97,97,82,,,,,,,,,124.93737099994905,124.93737099994905,125.42110110004432,,,,,,000547wwwwwww,001,,,2023-12-10_18h35.48.872,face_recognition_ERP_protocol,2022.2.5,59.89020925510503,
Celebs/17_Margot_Robbie_0006.jpg,non_target,0,0,0,0,0,98,98,16,,,,,,,,,125.9376360999886,125.9376360999886,126.42227580002509,,,,,,000547wwwwwww,001,,,2023-12-10_18h35.48.872,face_recognition_ERP_protocol,2022.2.5,59.89020925510503,
Celebs/18_Daniel_Radcliffe_0002.jpg,target,0,0,0,0,0,99,99,119,,,,,,,,,126.94165809999686,126.94165809999686,127.42292459995952,,,,,,000547wwwwwww,001,,,2023-12-10_18h35.48.872,face_recognition_ERP_protocol,2022.2.5,59.89020925510503,
Celebs/37_Will_Smith_0015.jpg,non_target,0,0,0,0,0,100,100,111,,,,,,,,,127.94299560005311,127.94299560005311,128.42419489996973,,,,,,000547wwwwwww,001,,,2023-12-10_18h35.48.872,face_recognition_ERP_protocol,2022.2.5,59.89020925510503,
Celebs/52_Jackie_Chan_0002.jpg,non_target,0,0,0,0,0,101,101,67,,,,,,,,,128.9410882999655,128.9410882999655,129.4254245000193,,,,,,000547wwwwwww,001,,,2023-12-10_18h35.48.872,face_recognition_ERP_protocol,2022.2.5,59.89020925510503,
Celebs/24_Daniel_Radcliffe_0017.jpg,target,0,0,0,0,0,102,102,70,,,,,,,,,129.94417969998904,129.94417969998904,130.42652790003922,,,,,,000547wwwwwww,001,,,2023-12-10_18h35.48.872,face_recognition_ERP_protocol,2022.2.5,59.89020925510503,
Celebs/34_Neil_Patrick_Harris_0007.jpg,non_target,0,0,0,0,0,103,103,116,,,,,,,,,130.94345110002905,130.94345110002905,131.42771670001093,,,,,,000547wwwwwww,001,,,2023-12-10_18h35.48.872,face_recognition_ERP_protocol,2022.2.5,59.89020925510503,
Celebs/27_Scarlett_Johansson_0012.jpg,non_target,0,0,0,0,0,104,104,76,,,,,,,,,131.94403889996465,131.94403889996465,132.4289142000489,,,,,,000547wwwwwww,001,,,2023-12-10_18h35.48.872,face_recognition_ERP_protocol,2022.2.5,59.89020925510503,
Celebs/39_Jim_Parsons_0004.jpg,non_target,0,0,0,0,0,105,105,86,,,,,,,,,132.94546790001914,132.94546790001914,133.43004590005148,,,,,,000547wwwwwww,001,,,2023-12-10_18h35.48.872,face_recognition_ERP_protocol,2022.2.5,59.89020925510503,
Celebs/21_Scarlett_Johansson_0007.jpg,non_target,0,0,0,0,0,106,106,117,,,,,,,,,133.94981110002846,133.94981110002846,134.4313547000056,,,,,,000547wwwwwww,001,,,2023-12-10_18h35.48.872,face_recognition_ERP_protocol,2022.2.5,59.89020925510503,
Celebs/54_Jackie_Chan_0014.jpg,non_target,0,0,0,0,0,107,107,109,,,,,,,,,134.95082240004558,134.95082240004558,135.4154089000076,,,,,,000547wwwwwww,001,,,2023-12-10_18h35.48.872,face_recognition_ERP_protocol,2022.2.5,59.89020925510503,
Celebs/14_Emma_Watson_0013.jpg,non_target,0,0,0,0,0,108,108,19,,,,,,,,,135.9327088999562,135.9327088999562,136.41641880001407,,,,,,000547wwwwwww,001,,,2023-12-10_18h35.48.872,face_recognition_ERP_protocol,2022.2.5,59.89020925510503,
Celebs/43_Will_Smith_0010.jpg,non_target,0,0,0,0,0,109,109,21,,,,,,,,,136.93321749998722,136.93321749998722,137.41753139998764,,,,,,000547wwwwwww,001,,,2023-12-10_18h35.48.872,face_recognition_ERP_protocol,2022.2.5,59.89020925510503,
Celebs/14_Emma_Watson_0008.jpg,non_target,0,0,0,0,0,110,110,35,,,,,,,,,137.93428569997195,137.93428569997195,138.4188707000576,,,,,,000547wwwwwww,001,,,2023-12-10_18h35.48.872,face_recognition_ERP_protocol,2022.2.5,59.89020925510503,
Celebs/39_Jim_Parsons_0008.jpg,non_target,0,0,0,0,0,111,111,87,,,,,,,,,138.9356337999925,138.9356337999925,139.41972280002665,,,,,,000547wwwwwww,001,,,2023-12-10_18h35.48.872,face_recognition_ERP_protocol,2022.2.5,59.89020925510503,
Celebs/29_Scarlett_Johansson_0016.jpg,non_target,0,0,0,0,0,112,112,2,,,,,,,,,139.93777740001678,139.93777740001678,140.42106690001674,,,,,,000547wwwwwww,001,,,2023-12-10_18h35.48.872,face_recognition_ERP_protocol,2022.2.5,59.89020925510503,
Celebs/32_Jim_Parsons_0010.jpg,non_target,0,0,0,0,0,113,113,96,,,,,,,,,140.9542026000563,140.9542026000563,141.4220229999628,,,,,,000547wwwwwww,001,,,2023-12-10_18h35.48.872,face_recognition_ERP_protocol,2022.2.5,59.89020925510503,
Celebs/22_Emma_Watson_0003.jpg,non_target,0,0,0,0,0,114,114,89,,,,,,,,,141.93998050002847,141.93998050002847,142.42235640005674,,,,,,000547wwwwwww,001,,,2023-12-10_18h35.48.872,face_recognition_ERP_protocol,2022.2.5,59.89020925510503,
Celebs/23_Emma_Stone_0014.jpg,non_target,0,0,0,0,0,115,115,11,,,,,,,,,142.94090529996902,142.94090529996902,143.42480589996558,,,,,,000547wwwwwww,001,,,2023-12-10_18h35.48.872,face_recognition_ERP_protocol,2022.2.5,59.89020925510503,
Celebs/57_Jackie_Chan_0010.jpg,non_target,0,0,0,0,0,116,116,61,,,,,,,,,143.94126820005476,143.94126820005476,144.4248178000562,,,,,,000547wwwwwww,001,,,2023-12-10_18h35.48.872,face_recognition_ERP_protocol,2022.2.5,59.89020925510503,
Celebs/54_Jackie_Chan_0001.jpg,non_target,0,0,0,0,0,117,117,7,,,,,,,,,144.9419806000078,144.9419806000078,145.42648619995452,,,,,,000547wwwwwww,001,,,2023-12-10_18h35.48.872,face_recognition_ERP_protocol,2022.2.5,59.89020925510503,
Celebs/39_Neil_Patrick_Harris_0001.jpg,non_target,0,0,0,0,0,118,118,4,,,,,,,,,145.9431568,145.9431568,146.4273243000498,,,,,,000547wwwwwww,001,,,2023-12-10_18h35.48.872,face_recognition_ERP_protocol,2022.2.5,59.89020925510503,
Celebs/21_Emma_Watson_0004.jpg,non_target,0,0,0,0,0,119,119,20,,,,,,,,,146.9451485000318,146.9451485000318,147.4288513000356,,,,,,000547wwwwwww,001,,,2023-12-10_18h35.48.872,face_recognition_ERP_protocol,2022.2.5,59.89020925510503,
Celebs/24_Scarlett_Johansson_0011.jpg,non_target,1,0,1,0,0,0,0,98,,,,,,,,,168.73820809996687,168.73820809996687,169.16905759996735,,147.94424230000004,147.94424230000004,space,20.67820770002436,000547wwwwwww,001,,,2023-12-10_18h35.48.872,face_recognition_ERP_protocol,2022.2.5,59.89020925510503,
Celebs/17_Margot_Robbie_0014.jpg,non_target,1,0,1,0,0,1,1,112,,,,,,,,,169.68572309997398,169.68572309997398,170.17027620004956,,,,,,000547wwwwwww,001,,,2023-12-10_18h35.48.872,face_recognition_ERP_protocol,2022.2.5,59.89020925510503,
Celebs/24_Scarlett_Johansson_0001.jpg,non_target,1,0,1,0,0,2,2,9,,,,,,,,,170.68704989994876,170.68704989994876,171.17127199994866,,,,,,000547wwwwwww,001,,,2023-12-10_18h35.48.872,face_recognition_ERP_protocol,2022.2.5,59.89020925510503,
Celebs/36_Jim_Parsons_0011.jpg,non_target,1,0,1,0,0,3,3,84,,,,,,,,,171.68724420003127,171.68724420003127,172.15541160001885,,,,,,000547wwwwwww,001,,,2023-12-10_18h35.48.872,face_recognition_ERP_protocol,2022.2.5,59.89020925510503,
Celebs/21_Emma_Stone_0002.jpg,non_target,1,0,1,0,0,4,4,101,,,,,,,,,172.67478290002327,172.67478290002327,173.15741770004388,,,,,,000547wwwwwww,001,,,2023-12-10_18h35.48.872,face_recognition_ERP_protocol,2022.2.5,59.89020925510503,
Celebs/16_Emma_Stone_0008.jpg,non_target,1,0,1,0,0,5,5,47,,,,,,,,,173.67304020002484,173.67304020002484,174.1578235999914,,,,,,000547wwwwwww,001,,,2023-12-10_18h35.48.872,face_recognition_ERP_protocol,2022.2.5,59.89020925510503,
Celebs/43_Will_Smith_0007.jpg,non_target,1,0,1,0,0,6,6,73,,,,,,,,,174.67756790004205,174.67756790004205,175.15869229997043,,,,,,000547wwwwwww,001,,,2023-12-10_18h35.48.872,face_recognition_ERP_protocol,2022.2.5,59.89020925510503,
Celebs/17_Margot_Robbie_0012.jpg,non_target,1,0,1,0,0,7,7,66,,,,,,,,,175.67821180005558,175.67821180005558,176.1597697000252,,,,,,000547wwwwwww,001,,,2023-12-10_18h35.48.872,face_recognition_ERP_protocol,2022.2.5,59.89020925510503,
Celebs/16_Emma_Stone_0010.jpg,non_target,1,0,1,0,0,8,8,93,,,,,,,,,176.6798298000358,176.6798298000358,177.16128030000255,,,,,,000547wwwwwww,001,,,2023-12-10_18h35.48.872,face_recognition_ERP_protocol,2022.2.5,59.89020925510503,
Celebs/29_Scarlett_Johansson_0016.jpg,non_target,1,0,1,0,0,9,9,2,,,,,,,,,177.67740569997113,177.67740569997113,178.16219339997042,,,,,,000547wwwwwww,001,,,2023-12-10_18h35.48.872,face_recognition_ERP_protocol,2022.2.5,59.89020925510503,
Celebs/36_Neil_Patrick_Harris_0010.jpg,non_target,1,0,1,0,0,10,10,77,,,,,,,,,178.68137939996086,178.68137939996086,179.16312699997798,,,,,,000547wwwwwww,001,,,2023-12-10_18h35.48.872,face_recognition_ERP_protocol,2022.2.5,59.89020925510503,
Celebs/37_Neil_Patrick_Harris_0014.jpg,non_target,1,0,1,0,0,11,11,36,,,,,,,,,179.68080790003296,179.68080790003296,180.16434060002211,,,,,,000547wwwwwww,001,,,2023-12-10_18h35.48.872,face_recognition_ERP_protocol,2022.2.5,59.89020925510503,
Celebs/22_Emma_Watson_0001.jpg,non_target,1,0,1,0,0,12,12,57,,,,,,,,,180.68145250005182,180.68145250005182,181.16524999996182,,,,,,000547wwwwwww,001,,,2023-12-10_18h35.48.872,face_recognition_ERP_protocol,2022.2.5,59.89020925510503,
Celebs/55_Jackie_Chan_0015.jpg,non_target,1,0,1,0,0,13,13,29,,,,,,,,,181.68603270000312,181.68603270000312,182.1663687999826,,,,,,000547wwwwwww,001,,,2023-12-10_18h35.48.872,face_recognition_ERP_protocol,2022.2.5,59.89020925510503,
Celebs/20_Emma_Watson_0007.jpg,non_target,1,0,1,0,0,14,14,94,,,,,,,,,182.68309399997815,182.68309399997815,183.1691642999649,,,,,,000547wwwwwww,001,,,2023-12-10_18h35.48.872,face_recognition_ERP_protocol,2022.2.5,59.89020925510503,
Celebs/44_Will_Smith_0007.jpg,non_target,1,0,1,0,0,15,15,64,,,,,,,,,183.68417839996982,183.68417839996982,184.16907279996667,,,,,,000547wwwwwww,001,,,2023-12-10_18h35.48.872,face_recognition_ERP_protocol,2022.2.5,59.89020925510503,
Celebs/51_Jackie_Chan_0006.jpg,non_target,1,0,1,0,0,16,16,95,,,,,,,,,184.6855950000463,184.6855950000463,185.16991599998437,,,,,,000547wwwwwww,001,,,2023-12-10_18h35.48.872,face_recognition_ERP_protocol,2022.2.5,59.89020925510503,
Celebs/45_Will_Smith_0014.jpg,non_target,1,0,1,0,0,17,17,58,,,,,,,,,185.68904440000188,185.68904440000188,186.17118009994738,,,,,,000547wwwwwww,001,,,2023-12-10_18h35.48.872,face_recognition_ERP_protocol,2022.2.5,59.89020925510503,
Celebs/21_Daniel_Radcliffe_0009.jpg,target,1,0,1,0,0,18,18,81,,,,,,,,,186.69183050002903,186.69183050002903,187.15484840003774,,,,,,000547wwwwwww,001,,,2023-12-10_18h35.48.872,face_recognition_ERP_protocol,2022.2.5,59.89020925510503,
Celebs/45_Johnny_Depp_0003.jpg,non_target,1,0,1,0,0,19,19,106,,,,,,,,,187.67178740003146,187.67178740003146,188.1559812000487,,,,,,000547wwwwwww,001,,,2023-12-10_18h35.48.872,face_recognition_ERP_protocol,2022.2.5,59.89020925510503,
Celebs/16_Emma_Stone_0014.jpg,non_target,1,0,1,0,0,20,20,39,,,,,,,,,188.6746404999867,188.6746404999867,189.15789310005493,,,,,,000547wwwwwww,001,,,2023-12-10_18h35.48.872,face_recognition_ERP_protocol,2022.2.5,59.89020925510503,
Celebs/17_Margot_Robbie_0006.jpg,non_target,1,0,1,0,0,21,21,16,,,,,,,,,189.67502099997364,189.67502099997364,190.15863710001577,,,,,,000547wwwwwww,001,,,2023-12-10_18h35.48.872,face_recognition_ERP_protocol,2022.2.5,59.89020925510503,
Celebs/15_Margot_Robbie_0012.jpg,non_target,1,0,1,0,0,22,22,80,,,,,,,,,190.67515210004058,190.67515210004058,191.16008629999124,,,,,,000547wwwwwww,001,,,2023-12-10_18h35.48.872,face_recognition_ERP_protocol,2022.2.5,59.89020925510503,
Celebs/26_Scarlett_Johansson_0003.jpg,non_target,1,0,1,0,0,23,23,103,,,,,,,,,191.67595109995455,191.67595109995455,192.1607722999761,,,,,,000547wwwwwww,001,,,2023-12-10_18h35.48.872,face_recognition_ERP_protocol,2022.2.5,59.89020925510503,
Celebs/42_Will_Smith_0012.jpg,non_target,1,0,1,0,0,24,24,63,,,,,,,,,192.67758649995085,192.67758649995085,193.16209690005053,,,,,,000547wwwwwww,001,,,2023-12-10_18h35.48.872,face_recognition_ERP_protocol,2022.2.5,59.89020925510503,
Celebs/20_Emma_Stone_0005.jpg,non_target,1,0,1,0,0,25,25,62,,,,,,,,,193.68076589994598,193.68076589994598,194.16293620003853,,,,,,000547wwwwwww,001,,,2023-12-10_18h35.48.872,face_recognition_ERP_protocol,2022.2.5,59.89020925510503,
Celebs/57_Jackie_Chan_0010.jpg,non_target,1,0,1,0,0,26,26,61,,,,,,,,,194.6794448000146,194.6794448000146,195.16407769999932,,,,,,000547wwwwwww,001,,,2023-12-10_18h35.48.872,face_recognition_ERP_protocol,2022.2.5,59.89020925510503,
Celebs/39_Jim_Parsons_0010.jpg,non_target,1,0,1,0,0,27,27,0,,,,,,,,,195.68069199996535,195.68069199996535,196.16525770002045,,,,,,000547wwwwwww,001,,,2023-12-10_18h35.48.872,face_recognition_ERP_protocol,2022.2.5,59.89020925510503,
Celebs/38_Jim_Parsons_0003.jpg,non_target,1,0,1,0,0,28,28,52,,,,,,,,,196.68479169998318,196.68479169998318,197.16685659997165,,,,,,000547wwwwwww,001,,,2023-12-10_18h35.48.872,face_recognition_ERP_protocol,2022.2.5,59.89020925510503,
Celebs/21_Emma_Stone_0003.jpg,non_target,1,0,1,0,0,29,29,24,,,,,,,,,197.68554570002016,197.68554570002016,198.16727860004175,,,,,,000547wwwwwww,001,,,2023-12-10_18h35.48.872,face_recognition_ERP_protocol,2022.2.5,59.89020925510503,
Celebs/50_Johnny_Depp_0010.jpg,non_target,1,0,1,0,0,30,30,113,,,,,,,,,198.68401980004273,198.68401980004273,199.16897460003383,,,,,,000547wwwwwww,001,,,2023-12-10_18h35.48.872,face_recognition_ERP_protocol,2022.2.5,59.89020925510503,
Celebs/32_Jim_Parsons_0018.jpg,non_target,1,0,1,0,0,31,31,45,,,,,,,,,199.68515100004151,199.68515100004151,200.16969310003333,,,,,,000547wwwwwww,001,,,2023-12-10_18h35.48.872,face_recognition_ERP_protocol,2022.2.5,59.89020925510503,
Celebs/14_Emma_Watson_0015.jpg,non_target,1,0,1,0,0,32,32,55,,,,,,,,,200.6871920999838,200.6871920999838,201.15382360003423,201.67125520005357,,,,,000547wwwwwww,001,,,2023-12-10_18h35.48.872,face_recognition_ERP_protocol,2022.2.5,59.89020925510503,
Celebs/40_Jim_Parsons_0015.jpg,non_target,1,0,1,0,0,33,33,44,,,,,,,,,201.67125520005357,201.67125520005357,202.15486180002335,,,,,,000547wwwwwww,001,,,2023-12-10_18h35.48.872,face_recognition_ERP_protocol,2022.2.5,59.89020925510503,
Celebs/40_Jim_Parsons_0004.jpg,non_target,1,0,1,0,0,34,34,72,,,,,,,,,202.67317990004085,202.67317990004085,203.15569479996338,,,,,,000547wwwwwww,001,,,2023-12-10_18h35.48.872,face_recognition_ERP_protocol,2022.2.5,59.89020925510503,
Celebs/44_Will_Smith_0006.jpg,non_target,1,0,1,0,0,35,35,40,,,,,,,,,203.6727450999897,203.6727450999897,204.15679569996428,,,,,,000547wwwwwww,001,,,2023-12-10_18h35.48.872,face_recognition_ERP_protocol,2022.2.5,59.89020925510503,
Celebs/39_Jim_Parsons_0004.jpg,non_target,1,0,1,0,0,36,36,86,,,,,,,,,204.67554339999333,204.67554339999333,205.15780929999892,,,,,,000547wwwwwww,001,,,2023-12-10_18h35.48.872,face_recognition_ERP_protocol,2022.2.5,59.89020925510503,
Celebs/37_Will_Smith_0015.jpg,non_target,1,0,1,0,0,37,37,111,,,,,,,,,205.67756980005652,205.67756980005652,206.15930179995485,,,,,,000547wwwwwww,001,,,2023-12-10_18h35.48.872,face_recognition_ERP_protocol,2022.2.5,59.89020925510503,
Celebs/47_Johnny_Depp_0009.jpg,non_target,1,0,1,0,0,38,38,22,,,,,,,,,206.67815229995176,206.67815229995176,207.160640600021,,,,,,000547wwwwwww,001,,,2023-12-10_18h35.48.872,face_recognition_ERP_protocol,2022.2.5,59.89020925510503,
Celebs/26_Scarlett_Johansson_0008.jpg,non_target,1,0,1,0,0,39,39,46,,,,,,,,,207.67725069995504,207.67725069995504,208.16153100004885,,,,,,000547wwwwwww,001,,,2023-12-10_18h35.48.872,face_recognition_ERP_protocol,2022.2.5,59.89020925510503,
Celebs/24_Daniel_Radcliffe_0017.jpg,target,1,0,1,0,0,40,40,70,,,,,,,,,208.67862480005715,208.67862480005715,209.162600700045,,,,,,000547wwwwwww,001,,,2023-12-10_18h35.48.872,face_recognition_ERP_protocol,2022.2.5,59.89020925510503,
Celebs/50_Jackie_Chan_0012.jpg,non_target,1,0,1,0,0,41,41,42,,,,,,,,,209.6815260000294,209.6815260000294,210.16373789997306,,,,,,000547wwwwwww,001,,,2023-12-10_18h35.48.872,face_recognition_ERP_protocol,2022.2.5,59.89020925510503,
Celebs/54_Jackie_Chan_0014.jpg,non_target,1,0,1,0,0,42,42,109,,,,,,,,,210.68335109995678,210.68335109995678,211.16479019995313,,,,,,000547wwwwwww,001,,,2023-12-10_18h35.48.872,face_recognition_ERP_protocol,2022.2.5,59.89020925510503,
Celebs/23_Daniel_Radcliffe_0010.jpg,target,1,0,1,0,0,43,43,14,,,,,,,,,211.682180600008,211.682180600008,212.16606019996107,,,,,,000547wwwwwww,001,,,2023-12-10_18h35.48.872,face_recognition_ERP_protocol,2022.2.5,59.89020925510503,
Celebs/58_Jackie_Chan_0005.jpg,non_target,1,0,1,0,0,44,44,3,,,,,,,,,212.68544330005534,212.68544330005534,213.16771900001913,,,,,,000547wwwwwww,001,,,2023-12-10_18h35.48.872,face_recognition_ERP_protocol,2022.2.5,59.89020925510503,
Celebs/50_Johnny_Depp_0004.jpg,non_target,1,0,1,0,0,45,45,38,,,,,,,,,213.68690430000424,213.68690430000424,214.16821160004474,,,,,,000547wwwwwww,001,,,2023-12-10_18h35.48.872,face_recognition_ERP_protocol,2022.2.5,59.89020925510503,
Celebs/48_Johnny_Depp_0005.jpg,non_target,1,0,1,0,0,46,46,53,,,,,,,,,214.68457789998502,214.68457789998502,215.17148290004116,,,,,,000547wwwwwww,001,,,2023-12-10_18h35.48.872,face_recognition_ERP_protocol,2022.2.5,59.89020925510503,
Celebs/29_Scarlett_Johansson_0010.jpg,non_target,1,0,1,0,0,47,47,83,,,,,,,,,215.68681640003342,215.68681640003342,216.17045350000262,,,,,,000547wwwwwww,001,,,2023-12-10_18h35.48.872,face_recognition_ERP_protocol,2022.2.5,59.89020925510503,
Celebs/48_Johnny_Depp_0001.jpg,non_target,1,0,1,0,0,48,48,104,,,,,,,,,216.68815099995118,216.68815099995118,217.15480130002834,217.67361980001442,,,,,000547wwwwwww,001,,,2023-12-10_18h35.48.872,face_recognition_ERP_protocol,2022.2.5,59.89020925510503,
Celebs/17_Daniel_Radcliffe_0007.jpg,target,1,0,1,0,0,49,49,18,,,,,,,,,217.67361980001442,217.67361980001442,218.15545950003434,,,,,,000547wwwwwww,001,,,2023-12-10_18h35.48.872,face_recognition_ERP_protocol,2022.2.5,59.89020925510503,
Celebs/22_Emma_Watson_0003.jpg,non_target,1,0,1,0,0,50,50,89,,,,,,,,,218.6749747999711,218.6749747999711,219.15658519999124,,,,,,000547wwwwwww,001,,,2023-12-10_18h35.48.872,face_recognition_ERP_protocol,2022.2.5,59.89020925510503,
Celebs/20_Margot_Robbie_0004.jpg,non_target,1,0,1,0,0,51,51,114,,,,,,,,,219.6760653000092,219.6760653000092,220.15749819995835,,,,,,000547wwwwwww,001,,,2023-12-10_18h35.48.872,face_recognition_ERP_protocol,2022.2.5,59.89020925510503,
Celebs/21_Emma_Watson_0004.jpg,non_target,1,0,1,0,0,52,52,20,,,,,,,,,220.67443859996274,220.67443859996274,221.1594215000514,,,,,,000547wwwwwww,001,,,2023-12-10_18h35.48.872,face_recognition_ERP_protocol,2022.2.5,59.89020925510503,
Celebs/18_Daniel_Radcliffe_0002.jpg,target,1,0,1,0,0,53,53,119,,,,,,,,,221.6773189000087,221.6773189000087,222.16051990003325,,,,,,000547wwwwwww,001,,,2023-12-10_18h35.48.872,face_recognition_ERP_protocol,2022.2.5,59.89020925510503,
Celebs/50_Jackie_Chan_0014.jpg,non_target,1,0,1,0,0,54,54,37,,,,,,,,,222.67907069996,222.67907069996,223.16109419998247,,,,,,000547wwwwwww,001,,,2023-12-10_18h35.48.872,face_recognition_ERP_protocol,2022.2.5,59.89020925510503,
Celebs/33_Neil_Patrick_Harris_0011.jpg,non_target,1,0,1,0,0,55,55,110,,,,,,,,,223.67893169994932,223.67893169994932,224.1627940000035,,,,,,000547wwwwwww,001,,,2023-12-10_18h35.48.872,face_recognition_ERP_protocol,2022.2.5,59.89020925510503,
Celebs/28_Scarlett_Johansson_0005.jpg,non_target,1,0,1,0,0,56,56,49,,,,,,,,,224.68403789994773,224.68403789994773,225.1641567000188,,,,,,000547wwwwwww,001,,,2023-12-10_18h35.48.872,face_recognition_ERP_protocol,2022.2.5,59.89020925510503,
Celebs/22_Scarlett_Johansson_0005.jpg,non_target,1,0,1,0,0,57,57,43,,,,,,,,,225.68296340003144,225.68296340003144,226.16449190001003,,,,,,000547wwwwwww,001,,,2023-12-10_18h35.48.872,face_recognition_ERP_protocol,2022.2.5,59.89020925510503,
Celebs/14_Emma_Watson_0008.jpg,non_target,1,0,1,0,0,58,58,35,,,,,,,,,226.68105240003206,226.68105240003206,227.16554309998173,,,,,,000547wwwwwww,001,,,2023-12-10_18h35.48.872,face_recognition_ERP_protocol,2022.2.5,59.89020925510503,
Celebs/19_Margot_Robbie_0001.jpg,non_target,1,0,1,0,0,59,59,50,,,,,,,,,227.68235140002798,227.68235140002798,228.16686929995194,,,,,,000547wwwwwww,001,,,2023-12-10_18h35.48.872,face_recognition_ERP_protocol,2022.2.5,59.89020925510503,
Celebs/22_Margot_Robbie_0010.jpg,non_target,1,0,1,0,0,60,60,17,,,,,,,,,228.68331580003724,228.68331580003724,229.16861769999377,,,,,,000547wwwwwww,001,,,2023-12-10_18h35.48.872,face_recognition_ERP_protocol,2022.2.5,59.89020925510503,
Celebs/20_Margot_Robbie_0006.jpg,non_target,1,0,1,0,0,61,61,34,,,,,,,,,229.6877942000283,229.6877942000283,230.16859000001568,,,,,,000547wwwwwww,001,,,2023-12-10_18h35.48.872,face_recognition_ERP_protocol,2022.2.5,59.89020925510503,
Celebs/36_Neil_Patrick_Harris_0007.jpg,non_target,1,0,1,0,0,62,62,5,,,,,,,,,230.6882585999556,230.6882585999556,231.17064789996948,,,,,,000547wwwwwww,001,,,2023-12-10_18h35.48.872,face_recognition_ERP_protocol,2022.2.5,59.89020925510503,
Celebs/32_Jim_Parsons_0010.jpg,non_target,1,0,1,0,0,63,63,96,,,,,,,,,231.689322500024,231.689322500024,232.17087999999058,,,,,,000547wwwwwww,001,,,2023-12-10_18h35.48.872,face_recognition_ERP_protocol,2022.2.5,59.89020925510503,
Celebs/14_Emma_Watson_0005.jpg,non_target,1,0,1,0,0,64,64,25,,,,,,,,,232.67100850003771,232.67100850003771,233.1551599999657,,,,,,000547wwwwwww,001,,,2023-12-10_18h35.48.872,face_recognition_ERP_protocol,2022.2.5,59.89020925510503,
Celebs/49_Johnny_Depp_0013.jpg,non_target,1,0,1,0,0,65,65,32,,,,,,,,,233.672735500033,233.672735500033,234.1566368000349,,,,,,000547wwwwwww,001,,,2023-12-10_18h35.48.872,face_recognition_ERP_protocol,2022.2.5,59.89020925510503,
Celebs/21_Daniel_Radcliffe_0012.jpg,target,1,0,1,0,0,66,66,115,,,,,,,,,234.6751624000026,234.6751624000026,235.1573314999696,,,,,,000547wwwwwww,001,,,2023-12-10_18h35.48.872,face_recognition_ERP_protocol,2022.2.5,59.89020925510503,
Celebs/22_Emma_Watson_0010.jpg,non_target,1,0,1,0,0,67,67,10,,,,,,,,,235.67406160000246,235.67406160000246,236.15867809997872,,,,,,000547wwwwwww,001,,,2023-12-10_18h35.48.872,face_recognition_ERP_protocol,2022.2.5,59.89020925510503,
Celebs/19_Emma_Stone_0006.jpg,non_target,1,0,1,0,0,68,68,65,,,,,,,,,236.67625819996465,236.67625819996465,237.15971120004542,,,,,,000547wwwwwww,001,,,2023-12-10_18h35.48.872,face_recognition_ERP_protocol,2022.2.5,59.89020925510503,
Celebs/20_Scarlett_Johansson_0011.jpg,non_target,1,0,1,0,0,69,69,107,,,,,,,,,237.6765303000575,237.6765303000575,238.16126760002226,,,,,,000547wwwwwww,001,,,2023-12-10_18h35.48.872,face_recognition_ERP_protocol,2022.2.5,59.89020925510503,
Celebs/39_Neil_Patrick_Harris_0010.jpg,non_target,1,0,1,0,0,70,70,92,,,,,,,,,238.68088030000217,238.68088030000217,239.1622452000156,,,,,,000547wwwwwww,001,,,2023-12-10_18h35.48.872,face_recognition_ERP_protocol,2022.2.5,59.89020925510503,
Celebs/27_Scarlett_Johansson_0012.jpg,non_target,1,0,1,0,0,71,71,76,,,,,,,,,239.6780407000333,239.6780407000333,240.1631505000405,,,,,,000547wwwwwww,001,,,2023-12-10_18h35.48.872,face_recognition_ERP_protocol,2022.2.5,59.89020925510503,
Celebs/34_Neil_Patrick_Harris_0007.jpg,non_target,1,0,1,0,0,72,72,116,,,,,,,,,240.67970480001532,240.67970480001532,241.1642069000518,,,,,,000547wwwwwww,001,,,2023-12-10_18h35.48.872,face_recognition_ERP_protocol,2022.2.5,59.89020925510503,
Celebs/52_Jackie_Chan_0002.jpg,non_target,1,0,1,0,0,73,73,67,,,,,,,,,241.6816458000103,241.6816458000103,242.16534469998442,,,,,,000547wwwwwww,001,,,2023-12-10_18h35.48.872,face_recognition_ERP_protocol,2022.2.5,59.89020925510503,
Celebs/55_Jackie_Chan_0008.jpg,non_target,1,0,1,0,0,74,74,90,,,,,,,,,242.68179800000507,242.68179800000507,243.16679839999415,,,,,,000547wwwwwww,001,,,2023-12-10_18h35.48.872,face_recognition_ERP_protocol,2022.2.5,59.89020925510503,
Celebs/50_Johnny_Depp_0008.jpg,non_target,1,0,1,0,0,75,75,82,,,,,,,,,243.68658630002756,243.68658630002756,244.16763389995322,,,,,,000547wwwwwww,001,,,2023-12-10_18h35.48.872,face_recognition_ERP_protocol,2022.2.5,59.89020925510503,
Celebs/21_Margot_Robbie_0003.jpg,non_target,1,0,1,0,0,76,76,26,,,,,,,,,244.68695560004562,244.68695560004562,245.168877899996,,,,,,000547wwwwwww,001,,,2023-12-10_18h35.48.872,face_recognition_ERP_protocol,2022.2.5,59.89020925510503,
Celebs/34_Neil_Patrick_Harris_0004.jpg,non_target,1,0,1,0,0,77,77,102,,,,,,,,,245.68850259995088,245.68850259995088,246.17077159998007,,,,,,000547wwwwwww,001,,,2023-12-10_18h35.48.872,face_recognition_ERP_protocol,2022.2.5,59.89020925510503,
Celebs/38_Will_Smith_0013.jpg,non_target,1,0,1,0,0,78,78,12,,,,,,,,,246.68747829995118,246.68747829995118,247.1706836000085,,,,,,000547wwwwwww,001,,,2023-12-10_18h35.48.872,face_recognition_ERP_protocol,2022.2.5,59.89020925510503,
Celebs/44_Will_Smith_0015.jpg,non_target,1,0,1,0,0,79,79,99,,,,,,,,,247.67239700001664,247.67239700001664,248.15540559997316,,,,,,000547wwwwwww,001,,,2023-12-10_18h35.48.872,face_recognition_ERP_protocol,2022.2.5,59.89020925510503,
Celebs/18_Daniel_Radcliffe_0007.jpg,target,1,0,1,0,0,80,80,79,,,,,,,,,248.6748839999782,248.6748839999782,249.15703700005542,,,,,,000547wwwwwww,001,,,2023-12-10_18h35.48.872,face_recognition_ERP_protocol,2022.2.5,59.89020925510503,
Celebs/23_Daniel_Radcliffe_0002.jpg,target,1,0,1,0,0,81,81,118,,,,,,,,,249.67292070004623,249.67292070004623,250.15764520002995,,,,,,000547wwwwwww,001,,,2023-12-10_18h35.48.872,face_recognition_ERP_protocol,2022.2.5,59.89020925510503,
Celebs/39_Jim_Parsons_0001.jpg,non_target,1,0,1,0,0,82,82,48,,,,,,,,,250.67582200001925,250.67582200001925,251.15908260003198,,,,,,000547wwwwwww,001,,,2023-12-10_18h35.48.872,face_recognition_ERP_protocol,2022.2.5,59.89020925510503,
Celebs/19_Margot_Robbie_0004.jpg,non_target,1,0,1,0,0,83,83,41,,,,,,,,,251.67674949998036,251.67674949998036,252.15945160004776,,,,,,000547wwwwwww,001,,,2023-12-10_18h35.48.872,face_recognition_ERP_protocol,2022.2.5,59.89020925510503,
Celebs/14_Emma_Watson_0013.jpg,non_target,1,0,1,0,0,84,84,19,,,,,,,,,252.67623099999037,252.67623099999037,253.16140560002532,,,,,,000547wwwwwww,001,,,2023-12-10_18h35.48.872,face_recognition_ERP_protocol,2022.2.5,59.89020925510503,
Celebs/47_Johnny_Depp_0004.jpg,non_target,1,0,1,0,0,85,85,75,,,,,,,,,253.67710650002118,253.67710650002118,254.1617275000317,,,,,,000547wwwwwww,001,,,2023-12-10_18h35.48.872,face_recognition_ERP_protocol,2022.2.5,59.89020925510503,
Celebs/16_Emma_Stone_0012.jpg,non_target,1,0,1,0,0,86,86,69,,,,,,,,,254.66294279997237,254.66294279997237,255.16252939996775,,,,,,000547wwwwwww,001,,,2023-12-10_18h35.48.872,face_recognition_ERP_protocol,2022.2.5,59.89020925510503,
Celebs/18_Emma_Stone_0016.jpg,non_target,1,0,1,0,0,87,87,51,,,,,,,,,255.68075800000224,255.68075800000224,256.1635990999639,,,,,,000547wwwwwww,001,,,2023-12-10_18h35.48.872,face_recognition_ERP_protocol,2022.2.5,59.89020925510503,
Celebs/37_Neil_Patrick_Harris_0010.jpg,non_target,1,0,1,0,0,88,88,91,,,,,,,,,256.681526600034,256.681526600034,257.16467660001945,,,,,,000547wwwwwww,001,,,2023-12-10_18h35.48.872,face_recognition_ERP_protocol,2022.2.5,59.89020925510503,
Celebs/22_Emma_Stone_0013.jpg,non_target,1,0,1,0,0,89,89,1,,,,,,,,,257.6845744999591,257.6845744999591,258.1666818000376,,,,,,000547wwwwwww,001,,,2023-12-10_18h35.48.872,face_recognition_ERP_protocol,2022.2.5,59.89020925510503,
Celebs/15_Margot_Robbie_0005.jpg,non_target,1,0,1,0,0,90,90,78,,,,,,,,,258.6857585000107,258.6857585000107,259.1674867999973,,,,,,000547wwwwwww,001,,,2023-12-10_18h35.48.872,face_recognition_ERP_protocol,2022.2.5,59.89020925510503,
Celebs/31_Neil_Patrick_Harris_0008.jpg,non_target,1,0,1,0,0,91,91,97,,,,,,,,,259.68508079997264,259.68508079997264,260.1684628999792,,,,,,000547wwwwwww,001,,,2023-12-10_18h35.48.872,face_recognition_ERP_protocol,2022.2.5,59.89020925510503,
Celebs/38_Neil_Patrick_Harris_0006.jpg,non_target,1,0,1,0,0,92,92,30,,,,,,,,,260.6860288999742,260.6860288999742,261.170048299944,,,,,,000547wwwwwww,001,,,2023-12-10_18h35.48.872,face_recognition_ERP_protocol,2022.2.5,59.89020925510503,
Celebs/50_Johnny_Depp_0018.jpg,non_target,1,0,1,0,0,93,93,23,,,,,,,,,261.6857580000069,261.6857580000069,262.17118019994814,,,,,,000547wwwwwww,001,,,2023-12-10_18h35.48.872,face_recognition_ERP_protocol,2022.2.5,59.89020925510503,
Celebs/25_Scarlett_Johansson_0010.jpg,non_target,1,0,1,0,0,94,94,31,,,,,,,,,262.6892009000294,262.6892009000294,263.15595279994886,,,,,,000547wwwwwww,001,,,2023-12-10_18h35.48.872,face_recognition_ERP_protocol,2022.2.5,59.89020925510503,
Celebs/48_Johnny_Depp_0003.jpg,non_target,1,0,1,0,0,95,95,54,,,,,,,,,263.6739069999894,263.6739069999894,264.19076889997814,,,,,,000547wwwwwww,001,,,2023-12-10_18h35.48.872,face_recognition_ERP_protocol,2022.2.5,59.89020925510503,
Celebs/39_Neil_Patrick_Harris_0001.jpg,non_target,1,0,1,0,0,96,96,4,,,,,,,,,264.6734467999777,264.6734467999777,265.20943930000067,,,,,,000547wwwwwww,001,,,2023-12-10_18h35.48.872,face_recognition_ERP_protocol,2022.2.5,59.89020925510503,
Celebs/35_Neil_Patrick_Harris_0009.jpg,non_target,1,0,1,0,0,97,97,85,,,,,,,,,265.6950669999933,265.6950669999933,266.1880702000344,,,,,,000547wwwwwww,001,,,2023-12-10_18h35.48.872,face_recognition_ERP_protocol,2022.2.5,59.89020925510503,
Celebs/23_Emma_Stone_0014.jpg,non_target,1,0,1,0,0,98,98,11,,,,,,,,,266.6829566999804,266.6829566999804,267.1590398000553,,,,,,000547wwwwwww,001,,,2023-12-10_18h35.48.872,face_recognition_ERP_protocol,2022.2.5,59.89020925510503,
Celebs/55_Jackie_Chan_0003.jpg,non_target,1,0,1,0,0,99,99,28,,,,,,,,,267.65860790002625,267.65860790002625,268.1718552999664,,,,,,000547wwwwwww,001,,,2023-12-10_18h35.48.872,face_recognition_ERP_protocol,2022.2.5,59.89020925510503,
Celebs/40_Will_Smith_0012.jpg,non_target,1,0,1,0,0,100,100,108,,,,,,,,,268.7001857999712,268.7001857999712,269.1890917000128,,,,,,000547wwwwwww,001,,,2023-12-10_18h35.48.872,face_recognition_ERP_protocol,2022.2.5,59.89020925510503,
Celebs/16_Margot_Robbie_0009.jpg,non_target,1,0,1,0,0,101,101,105,,,,,,,,,269.6820253999904,269.6820253999904,270.1650754000293,,,,,,000547wwwwwww,001,,,2023-12-10_18h35.48.872,face_recognition_ERP_protocol,2022.2.5,59.89020925510503,
Celebs/57_Jackie_Chan_0008.jpg,non_target,1,0,1,0,0,102,102,71,,,,,,,,,270.68379639997147,270.68379639997147,271.16696399997454,,,,,,000547wwwwwww,001,,,2023-12-10_18h35.48.872,face_recognition_ERP_protocol,2022.2.5,59.89020925510503,
Celebs/17_Emma_Watson_0006.jpg,non_target,1,0,1,0,0,103,103,88,,,,,,,,,271.6840522000566,271.6840522000566,272.17936890001874,,,,,,000547wwwwwww,001,,,2023-12-10_18h35.48.872,face_recognition_ERP_protocol,2022.2.5,59.89020925510503,
Celebs/32_Jim_Parsons_0016.jpg,non_target,1,0,1,0,0,104,104,100,,,,,,,,,272.6874776999466,272.6874776999466,273.1898365999805,,,,,,000547wwwwwww,001,,,2023-12-10_18h35.48.872,face_recognition_ERP_protocol,2022.2.5,59.89020925510503,
Celebs/45_Will_Smith_0010.jpg,non_target,1,0,1,0,0,105,105,68,,,,,,,,,273.68276929995045,273.68276929995045,274.1911400000099,,,,,,000547wwwwwww,001,,,2023-12-10_18h35.48.872,face_recognition_ERP_protocol,2022.2.5,59.89020925510503,
Celebs/21_Daniel_Radcliffe_0008.jpg,target,1,0,1,0,0,106,106,15,,,,,,,,,274.6963773999596,274.6963773999596,275.1610345999943,,,,,,000547wwwwwww,001,,,2023-12-10_18h35.48.872,face_recognition_ERP_protocol,2022.2.5,59.89020925510503,
Celebs/18_Emma_Watson_0004.jpg,non_target,1,0,1,0,0,107,107,74,,,,,,,,,275.6908524000319,275.6908524000319,276.1702698000008,,,,,,000547wwwwwww,001,,,2023-12-10_18h35.48.872,face_recognition_ERP_protocol,2022.2.5,59.89020925510503,
Celebs/39_Jim_Parsons_0008.jpg,non_target,1,0,1,0,0,108,108,87,,,,,,,,,276.68671979999635,276.68671979999635,277.17544889997225,,,,,,000547wwwwwww,001,,,2023-12-10_18h35.48.872,face_recognition_ERP_protocol,2022.2.5,59.89020925510503,
Celebs/23_Daniel_Radcliffe_0019.jpg,target,1,0,1,0,0,109,109,6,,,,,,,,,277.6931017000461,277.6931017000461,278.15512000001036,,,,,,000547wwwwwww,001,,,2023-12-10_18h35.48.872,face_recognition_ERP_protocol,2022.2.5,59.89020925510503,
Celebs/43_Will_Smith_0010.jpg,non_target,1,0,1,0,0,110,110,21,,,,,,,,,278.6774749000324,278.6774749000324,279.165468399995,,,,,,000547wwwwwww,001,,,2023-12-10_18h35.48.872,face_recognition_ERP_protocol,2022.2.5,59.89020925510503,
Celebs/21_Daniel_Radcliffe_0002.jpg,target,1,0,1,0,0,111,111,59,,,,,,,,,279.6723241000436,279.6723241000436,280.15752849995624,,,,,,000547wwwwwww,001,,,2023-12-10_18h35.48.872,face_recognition_ERP_protocol,2022.2.5,59.89020925510503,
Celebs/18_Daniel_Radcliffe_0008.jpg,target,1,0,1,0,0,112,112,27,,,,,,,,,280.67469530005474,280.67469530005474,281.1603992000455,,,,,,000547wwwwwww,001,,,2023-12-10_18h35.48.872,face_recognition_ERP_protocol,2022.2.5,59.89020925510503,
Celebs/54_Jackie_Chan_0001.jpg,non_target,1,0,1,0,0,113,113,7,,,,,,,,,281.6772738000145,281.6772738000145,282.16019650001545,,,,,,000547wwwwwww,001,,,2023-12-10_18h35.48.872,face_recognition_ERP_protocol,2022.2.5,59.89020925510503,
Celebs/47_Johnny_Depp_0003.jpg,non_target,1,0,1,0,0,114,114,8,,,,,,,,,282.68060610000975,282.68060610000975,283.1607338000322,,,,,,000547wwwwwww,001,,,2023-12-10_18h35.48.872,face_recognition_ERP_protocol,2022.2.5,59.89020925510503,
Celebs/43_Will_Smith_0006.jpg,non_target,1,0,1,0,0,115,115,60,,,,,,,,,283.68180090002716,283.68180090002716,284.161796499975,,,,,,000547wwwwwww,001,,,2023-12-10_18h35.48.872,face_recognition_ERP_protocol,2022.2.5,59.89020925510503,
Celebs/21_Scarlett_Johansson_0007.jpg,non_target,1,0,1,0,0,116,116,117,,,,,,,,,284.678046099958,284.678046099958,285.16275919997133,,,,,,000547wwwwwww,001,,,2023-12-10_18h35.48.872,face_recognition_ERP_protocol,2022.2.5,59.89020925510503,
Celebs/24_Emma_Stone_0015.jpg,non_target,1,0,1,0,0,117,117,56,,,,,,,,,285.68001130002085,285.68001130002085,286.1638514000224,,,,,,000547wwwwwww,001,,,2023-12-10_18h35.48.872,face_recognition_ERP_protocol,2022.2.5,59.89020925510503,
Celebs/33_Jim_Parsons_0011.jpg,non_target,1,0,1,0,0,118,118,33,,,,,,,,,286.6810449999757,286.6810449999757,287.1644564999733,,,,,,000547wwwwwww,001,,,2023-12-10_18h35.48.872,face_recognition_ERP_protocol,2022.2.5,59.89020925510503,
Celebs/14_Emma_Watson_0004.jpg,non_target,1,0,1,0,0,119,119,13,,,,,,,,,287.687154400046,287.687154400046,288.1670866999775,,,,,,000547wwwwwww,001,,,2023-12-10_18h35.48.872,face_recognition_ERP_protocol,2022.2.5,59.89020925510503,
Celebs/22_Scarlett_Johansson_0005.jpg,non_target,2,0,2,0,0,0,0,43,,,,,,,,,289.43746289995033,289.43746289995033,289.85139630001504,,288.67132349999156,288.67132349999156,space,0.6342568000545725,000547wwwwwww,001,,,2023-12-10_18h35.48.872,face_recognition_ERP_protocol,2022.2.5,59.89020925510503,
Celebs/45_Johnny_Depp_0003.jpg,non_target,2,0,2,0,0,1,1,106,,,,,,,,,290.3712792999577,290.3712792999577,290.85243900003843,,,,,,000547wwwwwww,001,,,2023-12-10_18h35.48.872,face_recognition_ERP_protocol,2022.2.5,59.89020925510503,
Celebs/23_Daniel_Radcliffe_0002.jpg,target,2,0,2,0,0,2,2,118,,,,,,,,,291.3680862999754,291.3680862999754,291.8575867000036,,,,,,000547wwwwwww,001,,,2023-12-10_18h35.48.872,face_recognition_ERP_protocol,2022.2.5,59.89020925510503,
Celebs/23_Daniel_Radcliffe_0010.jpg,target,2,0,2,0,0,3,3,14,,,,,,,,,292.3741297000088,292.3741297000088,292.85449059994426,,,,,,000547wwwwwww,001,,,2023-12-10_18h35.48.872,face_recognition_ERP_protocol,2022.2.5,59.89020925510503,
Celebs/38_Jim_Parsons_0003.jpg,non_target,2,0,2,0,0,4,4,52,,,,,,,,,293.37064420001116,293.37064420001116,293.8557081000181,,,,,,000547wwwwwww,001,,,2023-12-10_18h35.48.872,face_recognition_ERP_protocol,2022.2.5,59.89020925510503,
Celebs/44_Will_Smith_0006.jpg,non_target,2,0,2,0,0,5,5,40,,,,,,,,,294.37260769994464,294.37260769994464,294.85849550005514,,,,,,000547wwwwwww,001,,,2023-12-10_18h35.48.872,face_recognition_ERP_protocol,2022.2.5,59.89020925510503,
Celebs/58_Jackie_Chan_0005.jpg,non_target,2,0,2,0,0,6,6,3,,,,,,,,,295.3780478000408,295.3780478000408,295.8579473999562,,,,,,000547wwwwwww,001,,,2023-12-10_18h35.48.872,face_recognition_ERP_protocol,2022.2.5,59.89020925510503,
Celebs/19_Emma_Stone_0006.jpg,non_target,2,0,2,0,0,7,7,65,,,,,,,,,296.3635269999504,296.3635269999504,296.84221250005066,,,,,,000547wwwwwww,001,,,2023-12-10_18h35.48.872,face_recognition_ERP_protocol,2022.2.5,59.89020925510503,
Celebs/51_Jackie_Chan_0006.jpg,non_target,2,0,2,0,0,8,8,95,,,,,,,,,297.37572689994704,297.37572689994704,297.84329660004005,,,,,,000547wwwwwww,001,,,2023-12-10_18h35.48.872,face_recognition_ERP_protocol,2022.2.5,59.89020925510503,
Celebs/54_Jackie_Chan_0014.jpg,non_target,2,0,2,0,0,9,9,109,,,,,,,,,298.3593715999741,298.3593715999741,298.8447181000374,,,,,,000547wwwwwww,001,,,2023-12-10_18h35.48.872,face_recognition_ERP_protocol,2022.2.5,59.89020925510503,
Celebs/45_Will_Smith_0014.jpg,non_target,2,0,2,0,0,10,10,58,,,,,,,,,299.36133600003086,299.36133600003086,299.86290569999255,,,,,,000547wwwwwww,001,,,2023-12-10_18h35.48.872,face_recognition_ERP_protocol,2022.2.5,59.89020925510503,
Celebs/23_Daniel_Radcliffe_0019.jpg,target,2,0,2,0,0,11,11,6,,,,,,,,,300.3636998999864,300.3636998999864,300.84636019996833,,,,,,000547wwwwwww,001,,,2023-12-10_18h35.48.872,face_recognition_ERP_protocol,2022.2.5,59.89020925510503,
Celebs/16_Emma_Stone_0012.jpg,non_target,2,0,2,0,0,12,12,69,,,,,,,,,301.40899390005507,301.40899390005507,301.8481292000506,,,,,,000547wwwwwww,001,,,2023-12-10_18h35.48.872,face_recognition_ERP_protocol,2022.2.5,59.89020925510503,
Celebs/21_Emma_Stone_0002.jpg,non_target,2,0,2,0,0,13,13,101,,,,,,,,,302.36516050004866,302.36516050004866,302.84968059998937,,,,,,000547wwwwwww,001,,,2023-12-10_18h35.48.872,face_recognition_ERP_protocol,2022.2.5,59.89020925510503,
Celebs/36_Neil_Patrick_Harris_0007.jpg,non_target,2,0,2,0,0,14,14,5,,,,,,,,,303.36195020005107,303.36195020005107,303.85058900003787,,,,,,000547wwwwwww,001,,,2023-12-10_18h35.48.872,face_recognition_ERP_protocol,2022.2.5,59.89020925510503,
Celebs/25_Scarlett_Johansson_0010.jpg,non_target,2,0,2,0,0,15,15,31,,,,,,,,,304.3774652000284,304.3774652000284,304.87359860003926,,,,,,000547wwwwwww,001,,,2023-12-10_18h35.48.872,face_recognition_ERP_protocol,2022.2.5,59.89020925510503,
Celebs/16_Emma_Stone_0014.jpg,non_target,2,0,2,0,0,16,16,39,,,,,,,,,305.36809320002794,305.36809320002794,305.85296729998663,,,,,,000547wwwwwww,001,,,2023-12-10_18h35.48.872,face_recognition_ERP_protocol,2022.2.5,59.89020925510503,
Celebs/38_Neil_Patrick_Harris_0006.jpg,non_target,2,0,2,0,0,17,17,30,,,,,,,,,306.37581200001296,306.37581200001296,306.8516546000028,,,,,,000547wwwwwww,001,,,2023-12-10_18h35.48.872,face_recognition_ERP_protocol,2022.2.5,59.89020925510503,
Celebs/47_Johnny_Depp_0009.jpg,non_target,2,0,2,0,0,18,18,22,,,,,,,,,307.3768581999466,307.3768581999466,307.8597126000095,,,,,,000547wwwwwww,001,,,2023-12-10_18h35.48.872,face_recognition_ERP_protocol,2022.2.5,59.89020925510503,
Celebs/49_Johnny_Depp_0013.jpg,non_target,2,0,2,0,0,19,19,32,,,,,,,,,308.37547750002705,308.37547750002705,308.85395709995646,,,,,,000547wwwwwww,001,,,2023-12-10_18h35.48.872,face_recognition_ERP_protocol,2022.2.5,59.89020925510503,
Celebs/16_Margot_Robbie_0009.jpg,non_target,2,0,2,0,0,20,20,105,,,,,,,,,309.3725684999954,309.3725684999954,309.85616249998566,,,,,,000547wwwwwww,001,,,2023-12-10_18h35.48.872,face_recognition_ERP_protocol,2022.2.5,59.89020925510503,
Celebs/20_Emma_Stone_0005.jpg,non_target,2,0,2,0,0,21,21,62,,,,,,,,,310.3734870000044,310.3734870000044,310.8892609999748,,,,,,000547wwwwwww,001,,,2023-12-10_18h35.48.872,face_recognition_ERP_protocol,2022.2.5,59.89020925510503,
Celebs/18_Emma_Watson_0004.jpg,non_target,2,0,2,0,0,22,22,74,,,,,,,,,311.3923880000366,311.3923880000366,311.8470460999524,,,,,,000547wwwwwww,001,,,2023-12-10_18h35.48.872,face_recognition_ERP_protocol,2022.2.5,59.89020925510503,
Celebs/34_Neil_Patrick_Harris_0004.jpg,non_target,2,0,2,0,0,23,23,102,,,,,,,,,312.361918300041,312.361918300041,312.8453867000062,,,,,,000547wwwwwww,001,,,2023-12-10_18h35.48.872,face_recognition_ERP_protocol,2022.2.5,59.89020925510503,
Celebs/16_Emma_Stone_0008.jpg,non_target,2,0,2,0,0,24,24,47,,,,,,,,,313.3594298999524,313.3594298999524,313.8434615000151,,,,,,000547wwwwwww,001,,,2023-12-10_18h35.48.872,face_recognition_ERP_protocol,2022.2.5,59.89020925510503,
Celebs/34_Neil_Patrick_Harris_0007.jpg,non_target,2,0,2,0,0,25,25,116,,,,,,,,,314.36145920003764,314.36145920003764,314.844603799982,,,,,,000547wwwwwww,001,,,2023-12-10_18h35.48.872,face_recognition_ERP_protocol,2022.2.5,59.89020925510503,
Celebs/31_Neil_Patrick_Harris_0008.jpg,non_target,2,0,2,0,0,26,26,97,,,,,,,,,315.3632934000343,315.3632934000343,315.84614569996484,,,,,,000547wwwwwww,001,,,2023-12-10_18h35.48.872,face_recognition_ERP_protocol,2022.2.5,59.89020925510503,
Celebs/22_Emma_Watson_0001.jpg,non_target,2,0,2,0,0,27,27,57,,,,,,,,,316.36563629994635,316.36563629994635,316.8486767000286,,,,,,000547wwwwwww,001,,,2023-12-10_18h35.48.872,face_recognition_ERP_protocol,2022.2.5,59.89020925510503,
Celebs/35_Neil_Patrick_Harris_0009.jpg,non_target,2,0,2,0,0,28,28,85,,,,,,,,,317.36667120002676,317.36667120002676,317.8501515999669,,,,,,000547wwwwwww,001,,,2023-12-10_18h35.48.872,face_recognition_ERP_protocol,2022.2.5,59.89020925510503,
Celebs/50_Jackie_Chan_0012.jpg,non_target,2,0,2,0,0,29,29,42,,,,,,,,,318.3640430000378,318.3640430000378,318.8494784999639,,,,,,000547wwwwwww,001,,,2023-12-10_18h35.48.872,face_recognition_ERP_protocol,2022.2.5,59.89020925510503,
Celebs/21_Daniel_Radcliffe_0009.jpg,target,2,0,2,0,0,30,30,81,,,,,,,,,319.3654447000008,319.3654447000008,319.8500124999555,,,,,,000547wwwwwww,001,,,2023-12-10_18h35.48.872,face_recognition_ERP_protocol,2022.2.5,59.89020925510503,
Celebs/29_Scarlett_Johansson_0010.jpg,non_target,2,0,2,0,0,31,31,83,,,,,,,,,320.3669372999575,320.3669372999575,320.8516058999812,,,,,,000547wwwwwww,001,,,2023-12-10_18h35.48.872,face_recognition_ERP_protocol,2022.2.5,59.89020925510503,
Celebs/14_Emma_Watson_0004.jpg,non_target,2,0,2,0,0,32,32,13,,,,,,,,,321.36750900000334,321.36750900000334,321.8527876000153,,,,,,000547wwwwwww,001,,,2023-12-10_18h35.48.872,face_recognition_ERP_protocol,2022.2.5,59.89020925510503,
Celebs/55_Jackie_Chan_0003.jpg,non_target,2,0,2,0,0,33,33,28,,,,,,,,,322.36883159994613,322.36883159994613,322.85765120002907,,,,,,000547wwwwwww,001,,,2023-12-10_18h35.48.872,face_recognition_ERP_protocol,2022.2.5,59.89020925510503,
Celebs/32_Jim_Parsons_0010.jpg,non_target,2,0,2,0,0,34,34,96,,,,,,,,,323.37324680003803,323.37324680003803,323.85470739996526,,,,,,000547wwwwwww,001,,,2023-12-10_18h35.48.872,face_recognition_ERP_protocol,2022.2.5,59.89020925510503,
Celebs/20_Margot_Robbie_0004.jpg,non_target,2,0,2,0,0,35,35,114,,,,,,,,,324.37438439996913,324.37438439996913,324.8557549000252,,,,,,000547wwwwwww,001,,,2023-12-10_18h35.48.872,face_recognition_ERP_protocol,2022.2.5,59.89020925510503,
Celebs/39_Neil_Patrick_Harris_0001.jpg,non_target,2,0,2,0,0,36,36,4,,,,,,,,,325.3734038999537,325.3734038999537,325.85698839998804,,,,,,000547wwwwwww,001,,,2023-12-10_18h35.48.872,face_recognition_ERP_protocol,2022.2.5,59.89020925510503,
Celebs/37_Neil_Patrick_Harris_0014.jpg,non_target,2,0,2,0,0,37,37,36,,,,,,,,,326.37605650001206,326.37605650001206,326.8415132999653,,,,,,000547wwwwwww,001,,,2023-12-10_18h35.48.872,face_recognition_ERP_protocol,2022.2.5,59.89020925510503,
Celebs/48_Johnny_Depp_0001.jpg,non_target,2,0,2,0,0,38,38,104,,,,,,,,,327.3580927000148,327.3580927000148,327.84305459994357,,,,,,000547wwwwwww,001,,,2023-12-10_18h35.48.872,face_recognition_ERP_protocol,2022.2.5,59.89020925510503,
Celebs/24_Scarlett_Johansson_0001.jpg,non_target,2,0,2,0,0,39,39,9,,,,,,,,,328.3623948999448,328.3623948999448,328.8436483000405,,,,,,000547wwwwwww,001,,,2023-12-10_18h35.48.872,face_recognition_ERP_protocol,2022.2.5,59.89020925510503,
Celebs/19_Margot_Robbie_0001.jpg,non_target,2,0,2,0,0,40,40,50,,,,,,,,,329.36242579994723,329.36242579994723,329.84450170001946,,,,,,000547wwwwwww,001,,,2023-12-10_18h35.48.872,face_recognition_ERP_protocol,2022.2.5,59.89020925510503,
Celebs/24_Daniel_Radcliffe_0017.jpg,target,2,0,2,0,0,41,41,70,,,,,,,,,330.36276859999634,330.36276859999634,330.8470606999472,,,,,,000547wwwwwww,001,,,2023-12-10_18h35.48.872,face_recognition_ERP_protocol,2022.2.5,59.89020925510503,
Celebs/44_Will_Smith_0007.jpg,non_target,2,0,2,0,0,42,42,64,,,,,,,,,331.3623513999628,331.3623513999628,331.8469703999581,,,,,,000547wwwwwww,001,,,2023-12-10_18h35.48.872,face_recognition_ERP_protocol,2022.2.5,59.89020925510503,
Celebs/26_Scarlett_Johansson_0003.jpg,non_target,2,0,2,0,0,43,43,103,,,,,,,,,332.34718210005667,332.34718210005667,332.84950959996786,,,,,,000547wwwwwww,001,,,2023-12-10_18h35.48.872,face_recognition_ERP_protocol,2022.2.5,59.89020925510503,
Celebs/24_Emma_Stone_0015.jpg,non_target,2,0,2,0,0,44,44,56,,,,,,,,,333.3666408000281,333.3666408000281,333.84798179997597,,,,,,000547wwwwwww,001,,,2023-12-10_18h35.48.872,face_recognition_ERP_protocol,2022.2.5,59.89020925510503,
Celebs/50_Johnny_Depp_0018.jpg,non_target,2,0,2,0,0,45,45,23,,,,,,,,,334.35000790003687,334.35000790003687,334.8505434000399,,,,,,000547wwwwwww,001,,,2023-12-10_18h35.48.872,face_recognition_ERP_protocol,2022.2.5,59.89020925510503,
Celebs/14_Emma_Watson_0008.jpg,non_target,2,0,2,0,0,46,46,35,,,,,,,,,335.35153650003485,335.35153650003485,335.85197059996426,,,,,,000547wwwwwww,001,,,2023-12-10_18h35.48.872,face_recognition_ERP_protocol,2022.2.5,59.89020925510503,
Celebs/14_Emma_Watson_0005.jpg,non_target,2,0,2,0,0,47,47,25,,,,,,,,,336.37194199999794,336.37194199999794,336.85276160005014,,,,,,000547wwwwwww,001,,,2023-12-10_18h35.48.872,face_recognition_ERP_protocol,2022.2.5,59.89020925510503,
Celebs/48_Johnny_Depp_0003.jpg,non_target,2,0,2,0,0,48,48,54,,,,,,,,,337.36954440001864,337.36954440001864,337.8524169999873,,,,,,000547wwwwwww,001,,,2023-12-10_18h35.48.872,face_recognition_ERP_protocol,2022.2.5,59.89020925510503,
Celebs/21_Emma_Watson_0004.jpg,non_target,2,0,2,0,0,49,49,20,,,,,,,,,338.37093760003336,338.37093760003336,338.8540811999701,,,,,,000547wwwwwww,001,,,2023-12-10_18h35.48.872,face_recognition_ERP_protocol,2022.2.5,59.89020925510503,
Celebs/40_Jim_Parsons_0004.jpg,non_target,2,0,2,0,0,50,50,72,,,,,,,,,339.3710091999965,339.3710091999965,339.8559602999594,,,,,,000547wwwwwww,001,,,2023-12-10_18h35.48.872,face_recognition_ERP_protocol,2022.2.5,59.89020925510503,
Celebs/48_Johnny_Depp_0005.jpg,non_target,2,0,2,0,0,51,51,53,,,,,,,,,340.3750553999562,340.3750553999562,340.8568905000575,,,,,,000547wwwwwww,001,,,2023-12-10_18h35.48.872,face_recognition_ERP_protocol,2022.2.5,59.89020925510503,
Celebs/45_Will_Smith_0010.jpg,non_target,2,0,2,0,0,52,52,68,,,,,,,,,341.37557010003366,341.37557010003366,341.84107620001305,,,,,,000547wwwwwww,001,,,2023-12-10_18h35.48.872,face_recognition_ERP_protocol,2022.2.5,59.89020925510503,
Celebs/22_Margot_Robbie_0010.jpg,non_target,2,0,2,0,0,53,53,17,,,,,,,,,342.3591049000388,342.3591049000388,342.8422007999616,,,,,,000547wwwwwww,001,,,2023-12-10_18h35.48.872,face_recognition_ERP_protocol,2022.2.5,59.89020925510503,
Celebs/39_Jim_Parsons_0010.jpg,non_target,2,0,2,0,0,54,54,0,,,,,,,,,343.35840569995344,343.35840569995344,343.8432520000497,,,,,,000547wwwwwww,001,,,2023-12-10_18h35.48.872,face_recognition_ERP_protocol,2022.2.5,59.89020925510503,
Celebs/50_Johnny_Depp_0008.jpg,non_target,2,0,2,0,0,55,55,82,,,,,,,,,344.35998619999737,344.35998619999737,344.84437569999136,,,,,,000547wwwwwww,001,,,2023-12-10_18h35.48.872,face_recognition_ERP_protocol,2022.2.5,59.89020925510503,
Celebs/18_Daniel_Radcliffe_0008.jpg,target,2,0,2,0,0,56,56,27,,,,,,,,,345.3634661999531,345.3634661999531,345.84583130001556,,,,,,000547wwwwwww,001,,,2023-12-10_18h35.48.872,face_recognition_ERP_protocol,2022.2.5,59.89020925510503,
Celebs/29_Scarlett_Johansson_0016.jpg,non_target,2,0,2,0,0,57,57,2,,,,,,,,,346.3621362999547,346.3621362999547,346.8469937000191,,,,,,000547wwwwwww,001,,,2023-12-10_18h35.48.872,face_recognition_ERP_protocol,2022.2.5,59.89020925510503,
Celebs/54_Jackie_Chan_0001.jpg,non_target,2,0,2,0,0,58,58,7,,,,,,,,,347.3630268999841,347.3630268999841,347.848434500047,,,,,,000547wwwwwww,001,,,2023-12-10_18h35.48.872,face_recognition_ERP_protocol,2022.2.5,59.89020925510503,
Celebs/18_Emma_Stone_0016.jpg,non_target,2,0,2,0,0,59,59,51,,,,,,,,,348.36661999998614,348.36661999998614,348.84878989995923,,,,,,000547wwwwwww,001,,,2023-12-10_18h35.48.872,face_recognition_ERP_protocol,2022.2.5,59.89020925510503,
Celebs/21_Daniel_Radcliffe_0008.jpg,target,2,0,2,0,0,60,60,15,,,,,,,,,349.36558640003204,349.36558640003204,349.85725330002606,,,,,,000547wwwwwww,001,,,2023-12-10_18h35.48.872,face_recognition_ERP_protocol,2022.2.5,59.89020925510503,
Celebs/50_Jackie_Chan_0014.jpg,non_target,2,0,2,0,0,61,61,37,,,,,,,,,350.36754520004615,350.36754520004615,350.8510974999517,,,,,,000547wwwwwww,001,,,2023-12-10_18h35.48.872,face_recognition_ERP_protocol,2022.2.5,59.89020925510503,
Celebs/21_Scarlett_Johansson_0007.jpg,non_target,2,0,2,0,0,62,62,117,,,,,,,,,351.3701109000249,351.3701109000249,351.8523513999535,,,,,,000547wwwwwww,001,,,2023-12-10_18h35.48.872,face_recognition_ERP_protocol,2022.2.5,59.89020925510503,
Celebs/36_Jim_Parsons_0011.jpg,non_target,2,0,2,0,0,63,63,84,,,,,,,,,352.3717979999492,352.3717979999492,352.85345880000386,,,,,,000547wwwwwww,001,,,2023-12-10_18h35.48.872,face_recognition_ERP_protocol,2022.2.5,59.89020925510503,
Celebs/20_Margot_Robbie_0006.jpg,non_target,2,0,2,0,0,64,64,34,,,,,,,,,353.3700477000093,353.3700477000093,353.8541466000024,,,,,,000547wwwwwww,001,,,2023-12-10_18h35.48.872,face_recognition_ERP_protocol,2022.2.5,59.89020925510503,
Celebs/50_Johnny_Depp_0004.jpg,non_target,2,0,2,0,0,65,65,38,,,,,,,,,354.37119320000056,354.37119320000056,354.8557270000456,,,,,,000547wwwwwww,001,,,2023-12-10_18h35.48.872,face_recognition_ERP_protocol,2022.2.5,59.89020925510503,
Celebs/40_Will_Smith_0012.jpg,non_target,2,0,2,0,0,66,66,108,,,,,,,,,355.37218289996963,355.37218289996963,355.8560260999948,,,,,,000547wwwwwww,001,,,2023-12-10_18h35.48.872,face_recognition_ERP_protocol,2022.2.5,59.89020925510503,
Celebs/15_Margot_Robbie_0012.jpg,non_target,2,0,2,0,0,67,67,80,,,,,,,,,356.37474560004193,356.37474560004193,356.85709189996123,,,,,,000547wwwwwww,001,,,2023-12-10_18h35.48.872,face_recognition_ERP_protocol,2022.2.5,59.89020925510503,
Celebs/39_Jim_Parsons_0001.jpg,non_target,2,0,2,0,0,68,68,48,,,,,,,,,357.37710719997995,357.37710719997995,357.84189789998345,,,,,,000547wwwwwww,001,,,2023-12-10_18h35.48.872,face_recognition_ERP_protocol,2022.2.5,59.89020925510503,
Celebs/43_Will_Smith_0006.jpg,non_target,2,0,2,0,0,69,69,60,,,,,,,,,358.3610225999728,358.3610225999728,358.846422099974,,,,,,000547wwwwwww,001,,,2023-12-10_18h35.48.872,face_recognition_ERP_protocol,2022.2.5,59.89020925510503,
Celebs/57_Jackie_Chan_0010.jpg,non_target,2,0,2,0,0,70,70,61,,,,,,,,,359.36385570000857,359.36385570000857,359.8440091999946,,,,,,000547wwwwwww,001,,,2023-12-10_18h35.48.872,face_recognition_ERP_protocol,2022.2.5,59.89020925510503,
Celebs/38_Will_Smith_0013.jpg,non_target,2,0,2,0,0,71,71,12,,,,,,,,,360.3612169000553,360.3612169000553,360.84514860005584,,,,,,000547wwwwwww,001,,,2023-12-10_18h35.48.872,face_recognition_ERP_protocol,2022.2.5,59.89020925510503,
Celebs/28_Scarlett_Johansson_0005.jpg,non_target,2,0,2,0,0,72,72,49,,,,,,,,,361.3615309000015,361.3615309000015,361.8459033999825,,,,,,000547wwwwwww,001,,,2023-12-10_18h35.48.872,face_recognition_ERP_protocol,2022.2.5,59.89020925510503,
Celebs/21_Daniel_Radcliffe_0012.jpg,target,2,0,2,0,0,73,73,115,,,,,,,,,362.36315230000764,362.36315230000764,362.84697700000834,,,,,,000547wwwwwww,001,,,2023-12-10_18h35.48.872,face_recognition_ERP_protocol,2022.2.5,59.89020925510503,
Celebs/19_Margot_Robbie_0004.jpg,non_target,2,0,2,0,0,74,74,41,,,,,,,,,363.36501329997554,363.36501329997554,363.8483996000141,,,,,,000547wwwwwww,001,,,2023-12-10_18h35.48.872,face_recognition_ERP_protocol,2022.2.5,59.89020925510503,
Celebs/20_Emma_Watson_0007.jpg,non_target,2,0,2,0,0,75,75,94,,,,,,,,,364.3665150000015,364.3665150000015,364.8497651000507,,,,,,000547wwwwwww,001,,,2023-12-10_18h35.48.872,face_recognition_ERP_protocol,2022.2.5,59.89020925510503,
Celebs/32_Jim_Parsons_0018.jpg,non_target,2,0,2,0,0,76,76,45,,,,,,,,,365.36731829994824,365.36731829994824,365.8516409000149,,,,,,000547wwwwwww,001,,,2023-12-10_18h35.48.872,face_recognition_ERP_protocol,2022.2.5,59.89020925510503,
Celebs/24_Scarlett_Johansson_0011.jpg,non_target,2,0,2,0,0,77,77,98,,,,,,,,,366.3725574000273,366.3725574000273,366.85194369999226,,,,,,000547wwwwwww,001,,,2023-12-10_18h35.48.872,face_recognition_ERP_protocol,2022.2.5,59.89020925510503,
Celebs/22_Emma_Stone_0013.jpg,non_target,2,0,2,0,0,78,78,1,,,,,,,,,367.3706662999466,367.3706662999466,367.8526862000581,,,,,,000547wwwwwww,001,,,2023-12-10_18h35.48.872,face_recognition_ERP_protocol,2022.2.5,59.89020925510503,
Celebs/39_Neil_Patrick_Harris_0010.jpg,non_target,2,0,2,0,0,79,79,92,,,,,,,,,368.3697987999767,368.3697987999767,368.8547492000507,,,,,,000547wwwwwww,001,,,2023-12-10_18h35.48.872,face_recognition_ERP_protocol,2022.2.5,59.89020925510503,
Celebs/42_Will_Smith_0012.jpg,non_target,2,0,2,0,0,80,80,63,,,,,,,,,369.3723118000198,369.3723118000198,369.8559538000263,,,,,,000547wwwwwww,001,,,2023-12-10_18h35.48.872,face_recognition_ERP_protocol,2022.2.5,59.89020925510503,
Celebs/32_Jim_Parsons_0016.jpg,non_target,2,0,2,0,0,81,81,100,,,,,,,,,370.3726945000235,370.3726945000235,370.85667709994595,,,,,,000547wwwwwww,001,,,2023-12-10_18h35.48.872,face_recognition_ERP_protocol,2022.2.5,59.89020925510503,
Celebs/44_Will_Smith_0015.jpg,non_target,2,0,2,0,0,82,82,99,,,,,,,,,371.37416929996107,371.37416929996107,371.8569553999696,,,,,,000547wwwwwww,001,,,2023-12-10_18h35.48.872,face_recognition_ERP_protocol,2022.2.5,59.89020925510503,
Celebs/22_Emma_Watson_0003.jpg,non_target,2,0,2,0,0,83,83,89,,,,,,,,,372.3741032000398,372.3741032000398,372.84153930004686,,,,,,000547wwwwwww,001,,,2023-12-10_18h35.48.872,face_recognition_ERP_protocol,2022.2.5,59.89020925510503,
Celebs/33_Neil_Patrick_Harris_0011.jpg,non_target,2,0,2,0,0,84,84,110,,,,,,,,,373.3597463000333,373.3597463000333,373.84564319998026,,,,,,000547wwwwwww,001,,,2023-12-10_18h35.48.872,face_recognition_ERP_protocol,2022.2.5,59.89020925510503,
Celebs/22_Emma_Watson_0010.jpg,non_target,2,0,2,0,0,85,85,10,,,,,,,,,374.362748799962,374.362748799962,374.84534550004173,,,,,,000547wwwwwww,001,,,2023-12-10_18h35.48.872,face_recognition_ERP_protocol,2022.2.5,59.89020925510503,
Celebs/40_Jim_Parsons_0015.jpg,non_target,2,0,2,0,0,86,86,44,,,,,,,,,375.361224399996,375.361224399996,375.8460138000082,,,,,,000547wwwwwww,001,,,2023-12-10_18h35.48.872,face_recognition_ERP_protocol,2022.2.5,59.89020925510503,
Celebs/36_Neil_Patrick_Harris_0010.jpg,non_target,2,0,2,0,0,87,87,77,,,,,,,,,376.363417900051,376.363417900051,376.8459798999829,,,,,,000547wwwwwww,001,,,2023-12-10_18h35.48.872,face_recognition_ERP_protocol,2022.2.5,59.89020925510503,
Celebs/52_Jackie_Chan_0002.jpg,non_target,2,0,2,0,0,88,88,67,,,,,,,,,377.3636799999513,377.3636799999513,377.847059700056,,,,,,000547wwwwwww,001,,,2023-12-10_18h35.48.872,face_recognition_ERP_protocol,2022.2.5,59.89020925510503,
Celebs/55_Jackie_Chan_0015.jpg,non_target,2,0,2,0,0,89,89,29,,,,,,,,,378.365848800051,378.365848800051,378.848840199993,,,,,,000547wwwwwww,001,,,2023-12-10_18h35.48.872,face_recognition_ERP_protocol,2022.2.5,59.89020925510503,
Celebs/55_Jackie_Chan_0008.jpg,non_target,2,0,2,0,0,90,90,90,,,,,,,,,379.3653201999841,379.3653201999841,379.8494146000594,,,,,,000547wwwwwww,001,,,2023-12-10_18h35.48.872,face_recognition_ERP_protocol,2022.2.5,59.89020925510503,
Celebs/17_Margot_Robbie_0014.jpg,non_target,2,0,2,0,0,91,91,112,,,,,,,,,380.3697321000509,380.3697321000509,380.85008839995135,,,,,,000547wwwwwww,001,,,2023-12-10_18h35.48.872,face_recognition_ERP_protocol,2022.2.5,59.89020925510503,
Celebs/17_Margot_Robbie_0012.jpg,non_target,2,0,2,0,0,92,92,66,,,,,,,,,381.3668892000569,381.3668892000569,381.8515751999803,,,,,,000547wwwwwww,001,,,2023-12-10_18h35.48.872,face_recognition_ERP_protocol,2022.2.5,59.89020925510503,
Celebs/20_Scarlett_Johansson_0011.jpg,non_target,2,0,2,0,0,93,93,107,,,,,,,,,382.36904010002036,382.36904010002036,382.8521459000185,,,,,,000547wwwwwww,001,,,2023-12-10_18h35.48.872,face_recognition_ERP_protocol,2022.2.5,59.89020925510503,
Celebs/23_Emma_Stone_0014.jpg,non_target,2,0,2,0,0,94,94,11,,,,,,,,,383.37214590003714,383.37214590003714,383.85335410002153,,,,,,000547wwwwwww,001,,,2023-12-10_18h35.48.872,face_recognition_ERP_protocol,2022.2.5,59.89020925510503,
Celebs/27_Scarlett_Johansson_0012.jpg,non_target,2,0,2,0,0,95,95,76,,,,,,,,,384.37353710003663,384.37353710003663,384.85583939997014,,,,,,000547wwwwwww,001,,,2023-12-10_18h35.48.872,face_recognition_ERP_protocol,2022.2.5,59.89020925510503,
Celebs/16_Emma_Stone_0010.jpg,non_target,2,0,2,0,0,96,96,93,,,,,,,,,385.3542111000279,385.3542111000279,385.85653250000905,,,,,,000547wwwwwww,001,,,2023-12-10_18h35.48.872,face_recognition_ERP_protocol,2022.2.5,59.89020925510503,
Celebs/43_Will_Smith_0010.jpg,non_target,2,0,2,0,0,97,97,21,,,,,,,,,386.37217510002665,386.37217510002665,386.8574338000035,,,,,,000547wwwwwww,001,,,2023-12-10_18h35.48.872,face_recognition_ERP_protocol,2022.2.5,59.89020925510503,
Celebs/57_Jackie_Chan_0008.jpg,non_target,2,0,2,0,0,98,98,71,,,,,,,,,387.3756993999705,387.3756993999705,387.8585581999505,,,,,,000547wwwwwww,001,,,2023-12-10_18h35.48.872,face_recognition_ERP_protocol,2022.2.5,59.89020925510503,
Celebs/15_Margot_Robbie_0005.jpg,non_target,2,0,2,0,0,99,99,78,,,,,,,,,388.36056239996105,388.36056239996105,388.84243269998115,,,,,,000547wwwwwww,001,,,2023-12-10_18h35.48.872,face_recognition_ERP_protocol,2022.2.5,59.89020925510503,
Celebs/17_Daniel_Radcliffe_0007.jpg,target,2,0,2,0,0,100,100,18,,,,,,,,,389.35904859995935,389.35904859995935,389.84349120000843,,,,,,000547wwwwwww,001,,,2023-12-10_18h35.48.872,face_recognition_ERP_protocol,2022.2.5,59.89020925510503,
Celebs/43_Will_Smith_0007.jpg,non_target,2,0,2,0,0,101,101,73,,,,,,,,,390.3601603000425,390.3601603000425,390.84460339997895,,,,,,000547wwwwwww,001,,,2023-12-10_18h35.48.872,face_recognition_ERP_protocol,2022.2.5,59.89020925510503,
Celebs/17_Emma_Watson_0006.jpg,non_target,2,0,2,0,0,102,102,88,,,,,,,,,391.36218799999915,391.36218799999915,391.84534290002193,,,,,,000547wwwwwww,001,,,2023-12-10_18h35.48.872,face_recognition_ERP_protocol,2022.2.5,59.89020925510503,
Celebs/14_Emma_Watson_0015.jpg,non_target,2,0,2,0,0,103,103,55,,,,,,,,,392.3637406999478,392.3637406999478,392.8464472000487,,,,,,000547wwwwwww,001,,,2023-12-10_18h35.48.872,face_recognition_ERP_protocol,2022.2.5,59.89020925510503,
Celebs/47_Johnny_Depp_0003.jpg,non_target,2,0,2,0,0,104,104,8,,,,,,,,,393.3643825999461,393.3643825999461,393.8483434000518,,,,,,000547wwwwwww,001,,,2023-12-10_18h35.48.872,face_recognition_ERP_protocol,2022.2.5,59.89020925510503,
Celebs/21_Daniel_Radcliffe_0002.jpg,target,2,0,2,0,0,105,105,59,,,,,,,,,394.3654316000175,394.3654316000175,394.8490243999986,,,,,,000547wwwwwww,001,,,2023-12-10_18h35.48.872,face_recognition_ERP_protocol,2022.2.5,59.89020925510503,
Celebs/17_Margot_Robbie_0006.jpg,non_target,2,0,2,0,0,106,106,16,,,,,,,,,395.36785489995964,395.36785489995964,395.8504439999815,,,,,,000547wwwwwww,001,,,2023-12-10_18h35.48.872,face_recognition_ERP_protocol,2022.2.5,59.89020925510503,
Celebs/18_Daniel_Radcliffe_0007.jpg,target,2,0,2,0,0,107,107,79,,,,,,,,,396.372094499995,396.372094499995,396.8514025999466,,,,,,000547wwwwwww,001,,,2023-12-10_18h35.48.872,face_recognition_ERP_protocol,2022.2.5,59.89020925510503,
Celebs/33_Jim_Parsons_0011.jpg,non_target,2,0,2,0,0,108,108,33,,,,,,,,,397.3706200000597,397.3706200000597,397.8523154000286,,,,,,000547wwwwwww,001,,,2023-12-10_18h35.48.872,face_recognition_ERP_protocol,2022.2.5,59.89020925510503,
Celebs/50_Johnny_Depp_0010.jpg,non_target,2,0,2,0,0,109,109,113,,,,,,,,,398.36954129999503,398.36954129999503,398.8542691000039,,,,,,000547wwwwwww,001,,,2023-12-10_18h35.48.872,face_recognition_ERP_protocol,2022.2.5,59.89020925510503,
Celebs/21_Emma_Stone_0003.jpg,non_target,2,0,2,0,0,110,110,24,,,,,,,,,399.370343400049,399.370343400049,399.85463079996407,,,,,,000547wwwwwww,001,,,2023-12-10_18h35.48.872,face_recognition_ERP_protocol,2022.2.5,59.89020925510503,
Celebs/47_Johnny_Depp_0004.jpg,non_target,2,0,2,0,0,111,111,75,,,,,,,,,400.37218439998105,400.37218439998105,400.855577899958,,,,,,000547wwwwwww,001,,,2023-12-10_18h35.48.872,face_recognition_ERP_protocol,2022.2.5,59.89020925510503,
Celebs/39_Jim_Parsons_0008.jpg,non_target,2,0,2,0,0,112,112,87,,,,,,,,,401.37331559997983,401.37331559997983,401.8568347999826,,,,,,000547wwwwwww,001,,,2023-12-10_18h35.48.872,face_recognition_ERP_protocol,2022.2.5,59.89020925510503,
Celebs/18_Daniel_Radcliffe_0002.jpg,target,2,0,2,0,0,113,113,119,,,,,,,,,402.3733208000194,402.3733208000194,402.8410463000182,,,,,,000547wwwwwww,001,,,2023-12-10_18h35.48.872,face_recognition_ERP_protocol,2022.2.5,59.89020925510503,
Celebs/14_Emma_Watson_0013.jpg,non_target,2,0,2,0,0,114,114,19,,,,,,,,,403.3615628000116,403.3615628000116,403.84180970001034,,,,,,000547wwwwwww,001,,,2023-12-10_18h35.48.872,face_recognition_ERP_protocol,2022.2.5,59.89020925510503,
Celebs/37_Will_Smith_0015.jpg,non_target,2,0,2,0,0,115,115,111,,,,,,,,,404.3588494999567,404.3588494999567,404.84327359998133,,,,,,000547wwwwwww,001,,,2023-12-10_18h35.48.872,face_recognition_ERP_protocol,2022.2.5,59.89020925510503,
Celebs/21_Margot_Robbie_0003.jpg,non_target,2,0,2,0,0,116,116,26,,,,,,,,,405.359516800032,405.359516800032,405.84430480003357,,,,,,000547wwwwwww,001,,,2023-12-10_18h35.48.872,face_recognition_ERP_protocol,2022.2.5,59.89020925510503,
Celebs/37_Neil_Patrick_Harris_0010.jpg,non_target,2,0,2,0,0,117,117,91,,,,,,,,,406.3612952999538,406.3612952999538,406.84550789999776,,,,,,000547wwwwwww,001,,,2023-12-10_18h35.48.872,face_recognition_ERP_protocol,2022.2.5,59.89020925510503,
Celebs/39_Jim_Parsons_0004.jpg,non_target,2,0,2,0,0,118,118,86,,,,,,,,,407.3614717000164,407.3614717000164,407.8475086999824,,,,,,000547wwwwwww,001,,,2023-12-10_18h35.48.872,face_recognition_ERP_protocol,2022.2.5,59.89020925510503,
Celebs/26_Scarlett_Johansson_0008.jpg,non_target,2,0,2,0,0,119,119,46,,,,,,,,,408.36337010003626,408.36337010003626,408.8477905000327,,,,,,000547wwwwwww,001,,,2023-12-10_18h35.48.872,face_recognition_ERP_protocol,2022.2.5,59.89020925510503,
Celebs/15_Margot_Robbie_0005.jpg,non_target,3,0,3,0,0,0,0,78,,,,,,,,,409.898423000006,409.898423000006,410.31597019999754,,409.34832390001975,409.34832390001975,space,0.43288020009640604,000547wwwwwww,001,,,2023-12-10_18h35.48.872,face_recognition_ERP_protocol,2022.2.5,59.89020925510503,
Celebs/32_Jim_Parsons_0018.jpg,non_target,3,0,3,0,0,1,1,45,,,,,,,,,410.8368617000524,410.8368617000524,411.3169792999979,,,,,,000547wwwwwww,001,,,2023-12-10_18h35.48.872,face_recognition_ERP_protocol,2022.2.5,59.89020925510503,
Celebs/14_Emma_Watson_0013.jpg,non_target,3,0,3,0,0,2,2,19,,,,,,,,,411.8362172000343,411.8362172000343,412.318540200009,,,,,,000547wwwwwww,001,,,2023-12-10_18h35.48.872,face_recognition_ERP_protocol,2022.2.5,59.89020925510503,
Celebs/43_Will_Smith_0010.jpg,non_target,3,0,3,0,0,3,3,21,,,,,,,,,412.83736680005677,412.83736680005677,413.30244829994626,,,,,,000547wwwwwww,001,,,2023-12-10_18h35.48.872,face_recognition_ERP_protocol,2022.2.5,59.89020925510503,
Celebs/19_Emma_Stone_0006.jpg,non_target,3,0,3,0,0,4,4,65,,,,,,,,,413.8024554000003,413.8024554000003,414.30393060005736,,,,,,000547wwwwwww,001,,,2023-12-10_18h35.48.872,face_recognition_ERP_protocol,2022.2.5,59.89020925510503,
Celebs/40_Will_Smith_0012.jpg,non_target,3,0,3,0,0,5,5,108,,,,,,,,,414.8205301000271,414.8205301000271,415.30464810004923,,,,,,000547wwwwwww,001,,,2023-12-10_18h35.48.872,face_recognition_ERP_protocol,2022.2.5,59.89020925510503,
Celebs/17_Emma_Watson_0006.jpg,non_target,3,0,3,0,0,6,6,88,,,,,,,,,415.82394280005246,415.82394280005246,416.30576420004945,,,,,,000547wwwwwww,001,,,2023-12-10_18h35.48.872,face_recognition_ERP_protocol,2022.2.5,59.89020925510503,
Celebs/51_Jackie_Chan_0006.jpg,non_target,3,0,3,0,0,7,7,95,,,,,,,,,416.8243015999906,416.8243015999906,417.3081193000544,,,,,,000547wwwwwww,001,,,2023-12-10_18h35.48.872,face_recognition_ERP_protocol,2022.2.5,59.89020925510503,
Celebs/33_Jim_Parsons_0011.jpg,non_target,3,0,3,0,0,8,8,33,,,,,,,,,417.82621940004174,417.82621940004174,418.3074447000399,,,,,,000547wwwwwww,001,,,2023-12-10_18h35.48.872,face_recognition_ERP_protocol,2022.2.5,59.89020925510503,
Celebs/47_Johnny_Depp_0009.jpg,non_target,3,0,3,0,0,9,9,22,,,,,,,,,418.82816989999264,418.82816989999264,419.30875900003593,,,,,,000547wwwwwww,001,,,2023-12-10_18h35.48.872,face_recognition_ERP_protocol,2022.2.5,59.89020925510503,
Celebs/50_Jackie_Chan_0014.jpg,non_target,3,0,3,0,0,10,10,37,,,,,,,,,419.8290985999629,419.8290985999629,420.3105621000286,,,,,,000547wwwwwww,001,,,2023-12-10_18h35.48.872,face_recognition_ERP_protocol,2022.2.5,59.89020925510503,
Celebs/34_Neil_Patrick_Harris_0004.jpg,non_target,3,0,3,0,0,11,11,102,,,,,,,,,420.8291751999641,420.8291751999641,421.3115996000124,,,,,,000547wwwwwww,001,,,2023-12-10_18h35.48.872,face_recognition_ERP_protocol,2022.2.5,59.89020925510503,
Celebs/36_Neil_Patrick_Harris_0007.jpg,non_target,3,0,3,0,0,12,12,5,,,,,,,,,421.8281961999601,421.8281961999601,422.3126197999809,,,,,,000547wwwwwww,001,,,2023-12-10_18h35.48.872,face_recognition_ERP_protocol,2022.2.5,59.89020925510503,
Celebs/44_Will_Smith_0006.jpg,non_target,3,0,3,0,0,13,13,40,,,,,,,,,422.82961639994755,422.82961639994755,423.31348300003447,,,,,,000547wwwwwww,001,,,2023-12-10_18h35.48.872,face_recognition_ERP_protocol,2022.2.5,59.89020925510503,
Celebs/50_Johnny_Depp_0018.jpg,non_target,3,0,3,0,0,14,14,23,,,,,,,,,423.83092199999373,423.83092199999373,424.31491119996645,,,,,,000547wwwwwww,001,,,2023-12-10_18h35.48.872,face_recognition_ERP_protocol,2022.2.5,59.89020925510503,
Celebs/48_Johnny_Depp_0003.jpg,non_target,3,0,3,0,0,15,15,54,,,,,,,,,424.8335225000046,424.8335225000046,425.31514610000886,,,,,,000547wwwwwww,001,,,2023-12-10_18h35.48.872,face_recognition_ERP_protocol,2022.2.5,59.89020925510503,
Celebs/52_Jackie_Chan_0002.jpg,non_target,3,0,3,0,0,16,16,67,,,,,,,,,425.8324737000512,425.8324737000512,426.3165113000432,,,,,,000547wwwwwww,001,,,2023-12-10_18h35.48.872,face_recognition_ERP_protocol,2022.2.5,59.89020925510503,
Celebs/22_Margot_Robbie_0010.jpg,non_target,3,0,3,0,0,17,17,17,,,,,,,,,426.8336567999795,426.8336567999795,427.3180554000428,,,,,,000547wwwwwww,001,,,2023-12-10_18h35.48.872,face_recognition_ERP_protocol,2022.2.5,59.89020925510503,
Celebs/21_Emma_Stone_0002.jpg,non_target,3,0,3,0,0,18,18,101,,,,,,,,,427.8352221000241,427.8352221000241,428.3021941999905,,,,,,000547wwwwwww,001,,,2023-12-10_18h35.48.872,face_recognition_ERP_protocol,2022.2.5,59.89020925510503,
Celebs/45_Johnny_Depp_0003.jpg,non_target,3,0,3,0,0,19,19,106,,,,,,,,,428.82027559995186,428.82027559995186,429.30326519999653,,,,,,000547wwwwwww,001,,,2023-12-10_18h35.48.872,face_recognition_ERP_protocol,2022.2.5,59.89020925510503,
Celebs/23_Emma_Stone_0014.jpg,non_target,3,0,3,0,0,20,20,11,,,,,,,,,429.8229937000433,429.8229937000433,430.30496940005105,,,,,,000547wwwwwww,001,,,2023-12-10_18h35.48.872,face_recognition_ERP_protocol,2022.2.5,59.89020925510503,
Celebs/54_Jackie_Chan_0014.jpg,non_target,3,0,3,0,0,21,21,109,,,,,,,,,430.8240119999973,430.8240119999973,431.321874700021,,,,,,000547wwwwwww,001,,,2023-12-10_18h35.48.872,face_recognition_ERP_protocol,2022.2.5,59.89020925510503,
Celebs/58_Jackie_Chan_0005.jpg,non_target,3,0,3,0,0,22,22,3,,,,,,,,,431.8257582000224,431.8257582000224,432.30632850003894,,,,,,000547wwwwwww,001,,,2023-12-10_18h35.48.872,face_recognition_ERP_protocol,2022.2.5,59.89020925510503,
Celebs/16_Emma_Stone_0008.jpg,non_target,3,0,3,0,0,23,23,47,,,,,,,,,432.8266308000311,432.8266308000311,433.3072848999873,,,,,,000547wwwwwww,001,,,2023-12-10_18h35.48.872,face_recognition_ERP_protocol,2022.2.5,59.89020925510503,
Celebs/23_Daniel_Radcliffe_0019.jpg,target,3,0,3,0,0,24,24,6,,,,,,,,,433.8245394000551,433.8245394000551,434.308926000027,,,,,,000547wwwwwww,001,,,2023-12-10_18h35.48.872,face_recognition_ERP_protocol,2022.2.5,59.89020925510503,
Celebs/20_Margot_Robbie_0006.jpg,non_target,3,0,3,0,0,25,25,34,,,,,,,,,434.82662559999153,434.82662559999153,435.32497359998524,,,,,,000547wwwwwww,001,,,2023-12-10_18h35.48.872,face_recognition_ERP_protocol,2022.2.5,59.89020925510503,
Celebs/45_Will_Smith_0010.jpg,non_target,3,0,3,0,0,26,26,68,,,,,,,,,435.82638470001984,435.82638470001984,436.3113078000024,,,,,,000547wwwwwww,001,,,2023-12-10_18h35.48.872,face_recognition_ERP_protocol,2022.2.5,59.89020925510503,
Celebs/22_Emma_Watson_0001.jpg,non_target,3,0,3,0,0,27,27,57,,,,,,,,,436.8308018000098,436.8308018000098,437.31207640003413,,,,,,000547wwwwwww,001,,,2023-12-10_18h35.48.872,face_recognition_ERP_protocol,2022.2.5,59.89020925510503,
Celebs/35_Neil_Patrick_Harris_0009.jpg,non_target,3,0,3,0,0,28,28,85,,,,,,,,,437.82816290005576,437.82816290005576,438.31312419997994,,,,,,000547wwwwwww,001,,,2023-12-10_18h35.48.872,face_recognition_ERP_protocol,2022.2.5,59.89020925510503,
Celebs/54_Jackie_Chan_0001.jpg,non_target,3,0,3,0,0,29,29,7,,,,,,,,,438.83270479994826,438.83270479994826,439.31425529997796,,,,,,000547wwwwwww,001,,,2023-12-10_18h35.48.872,face_recognition_ERP_protocol,2022.2.5,59.89020925510503,
Celebs/47_Johnny_Depp_0003.jpg,non_target,3,0,3,0,0,30,30,8,,,,,,,,,439.8336455000099,439.8336455000099,440.3153410999803,,,,,,000547wwwwwww,001,,,2023-12-10_18h35.48.872,face_recognition_ERP_protocol,2022.2.5,59.89020925510503,
Celebs/44_Will_Smith_0007.jpg,non_target,3,0,3,0,0,31,31,64,,,,,,,,,440.83480539999437,440.83480539999437,441.31684600003064,,,,,,000547wwwwwww,001,,,2023-12-10_18h35.48.872,face_recognition_ERP_protocol,2022.2.5,59.89020925510503,
Celebs/18_Daniel_Radcliffe_0008.jpg,target,3,0,3,0,0,32,32,27,,,,,,,,,441.83373089996167,441.83373089996167,442.31895039998926,,,,,,000547wwwwwww,001,,,2023-12-10_18h35.48.872,face_recognition_ERP_protocol,2022.2.5,59.89020925510503,
Celebs/36_Jim_Parsons_0011.jpg,non_target,3,0,3,0,0,33,33,84,,,,,,,,,442.82666200003587,442.82666200003587,443.3212507000426,,,,,,000547wwwwwww,001,,,2023-12-10_18h35.48.872,face_recognition_ERP_protocol,2022.2.5,59.89020925510503,
Celebs/20_Scarlett_Johansson_0011.jpg,non_target,3,0,3,0,0,34,34,107,,,,,,,,,443.8389917999739,443.8389917999739,444.303035799996,,,,,,000547wwwwwww,001,,,2023-12-10_18h35.48.872,face_recognition_ERP_protocol,2022.2.5,59.89020925510503,
Celebs/23_Daniel_Radcliffe_0002.jpg,target,3,0,3,0,0,35,35,118,,,,,,,,,444.82307010004297,444.82307010004297,445.30435540003236,,,,,,000547wwwwwww,001,,,2023-12-10_18h35.48.872,face_recognition_ERP_protocol,2022.2.5,59.89020925510503,
Celebs/26_Scarlett_Johansson_0003.jpg,non_target,3,0,3,0,0,36,36,103,,,,,,,,,445.823249500012,445.823249500012,446.30572639999446,,,,,,000547wwwwwww,001,,,2023-12-10_18h35.48.872,face_recognition_ERP_protocol,2022.2.5,59.89020925510503,
Celebs/19_Margot_Robbie_0001.jpg,non_target,3,0,3,0,0,37,37,50,,,,,,,,,446.8241751999594,446.8241751999594,447.3067980000051,,,,,,000547wwwwwww,001,,,2023-12-10_18h35.48.872,face_recognition_ERP_protocol,2022.2.5,59.89020925510503,
Celebs/23_Daniel_Radcliffe_0010.jpg,target,3,0,3,0,0,38,38,14,,,,,,,,,447.8233348999638,447.8233348999638,448.30811029998586,,,,,,000547wwwwwww,001,,,2023-12-10_18h35.48.872,face_recognition_ERP_protocol,2022.2.5,59.89020925510503,
Celebs/36_Neil_Patrick_Harris_0010.jpg,non_target,3,0,3,0,0,39,39,77,,,,,,,,,448.82675280002877,448.82675280002877,449.3088778000092,,,,,,000547wwwwwww,001,,,2023-12-10_18h35.48.872,face_recognition_ERP_protocol,2022.2.5,59.89020925510503,
Celebs/21_Daniel_Radcliffe_0009.jpg,target,3,0,3,0,0,40,40,81,,,,,,,,,449.8280225000344,449.8280225000344,450.31037309998646,,,,,,000547wwwwwww,001,,,2023-12-10_18h35.48.872,face_recognition_ERP_protocol,2022.2.5,59.89020925510503,
Celebs/37_Neil_Patrick_Harris_0014.jpg,non_target,3,0,3,0,0,41,41,36,,,,,,,,,450.82745790004265,450.82745790004265,451.3106998000294,,,,,,000547wwwwwww,001,,,2023-12-10_18h35.48.872,face_recognition_ERP_protocol,2022.2.5,59.89020925510503,
Celebs/17_Margot_Robbie_0012.jpg,non_target,3,0,3,0,0,42,42,66,,,,,,,,,451.82687710004393,451.82687710004393,452.31176039995626,,,,,,000547wwwwwww,001,,,2023-12-10_18h35.48.872,face_recognition_ERP_protocol,2022.2.5,59.89020925510503,
Celebs/57_Jackie_Chan_0008.jpg,non_target,3,0,3,0,0,43,43,71,,,,,,,,,452.8310791000258,452.8310791000258,453.3136638000142,,,,,,000547wwwwwww,001,,,2023-12-10_18h35.48.872,face_recognition_ERP_protocol,2022.2.5,59.89020925510503,
Celebs/39_Neil_Patrick_Harris_0010.jpg,non_target,3,0,3,0,0,44,44,92,,,,,,,,,453.83112840005197,453.83112840005197,454.3139355999883,,,,,,000547wwwwwww,001,,,2023-12-10_18h35.48.872,face_recognition_ERP_protocol,2022.2.5,59.89020925510503,
Celebs/50_Jackie_Chan_0012.jpg,non_target,3,0,3,0,0,45,45,42,,,,,,,,,454.83128140005283,454.83128140005283,455.31503279996105,,,,,,000547wwwwwww,001,,,2023-12-10_18h35.48.872,face_recognition_ERP_protocol,2022.2.5,59.89020925510503,
Celebs/14_Emma_Watson_0004.jpg,non_target,3,0,3,0,0,46,46,13,,,,,,,,,455.8328713000519,455.8328713000519,456.31679209996946,,,,,,000547wwwwwww,001,,,2023-12-10_18h35.48.872,face_recognition_ERP_protocol,2022.2.5,59.89020925510503,
Celebs/25_Scarlett_Johansson_0010.jpg,non_target,3,0,3,0,0,47,47,31,,,,,,,,,456.8357856000075,456.8357856000075,457.3173327000113,,,,,,000547wwwwwww,001,,,2023-12-10_18h35.48.872,face_recognition_ERP_protocol,2022.2.5,59.89020925510503,
Celebs/21_Daniel_Radcliffe_0008.jpg,target,3,0,3,0,0,48,48,15,,,,,,,,,457.8376363000134,457.8376363000134,458.318483900046,,,,,,000547wwwwwww,001,,,2023-12-10_18h35.48.872,face_recognition_ERP_protocol,2022.2.5,59.89020925510503,
Celebs/21_Emma_Watson_0004.jpg,non_target,3,0,3,0,0,49,49,20,,,,,,,,,458.81963419995736,458.81963419995736,459.3027308000019,,,,,,000547wwwwwww,001,,,2023-12-10_18h35.48.872,face_recognition_ERP_protocol,2022.2.5,59.89020925510503,
Celebs/50_Johnny_Depp_0004.jpg,non_target,3,0,3,0,0,50,50,38,,,,,,,,,459.8196223999839,459.8196223999839,460.3038353000302,,,,,,000547wwwwwww,001,,,2023-12-10_18h35.48.872,face_recognition_ERP_protocol,2022.2.5,59.89020925510503,
Celebs/14_Emma_Watson_0008.jpg,non_target,3,0,3,0,0,51,51,35,,,,,,,,,460.82061609998345,460.82061609998345,461.3049441999756,,,,,,000547wwwwwww,001,,,2023-12-10_18h35.48.872,face_recognition_ERP_protocol,2022.2.5,59.89020925510503,
Celebs/40_Jim_Parsons_0015.jpg,non_target,3,0,3,0,0,52,52,44,,,,,,,,,461.82149989996105,461.82149989996105,462.3056723000482,,,,,,000547wwwwwww,001,,,2023-12-10_18h35.48.872,face_recognition_ERP_protocol,2022.2.5,59.89020925510503,
Celebs/42_Will_Smith_0012.jpg,non_target,3,0,3,0,0,53,53,63,,,,,,,,,462.8238213000586,462.8238213000586,463.3074771000538,,,,,,000547wwwwwww,001,,,2023-12-10_18h35.48.872,face_recognition_ERP_protocol,2022.2.5,59.89020925510503,
Celebs/44_Will_Smith_0015.jpg,non_target,3,0,3,0,0,54,54,99,,,,,,,,,463.82502330001444,463.82502330001444,464.3087136000395,,,,,,000547wwwwwww,001,,,2023-12-10_18h35.48.872,face_recognition_ERP_protocol,2022.2.5,59.89020925510503,
Celebs/27_Scarlett_Johansson_0012.jpg,non_target,3,0,3,0,0,55,55,76,,,,,,,,,464.82450139999855,464.82450139999855,465.3101647000294,,,,,,000547wwwwwww,001,,,2023-12-10_18h35.48.872,face_recognition_ERP_protocol,2022.2.5,59.89020925510503,
Celebs/21_Emma_Stone_0003.jpg,non_target,3,0,3,0,0,56,56,24,,,,,,,,,465.8256261999486,465.8256261999486,466.3135503999656,,,,,,000547wwwwwww,001,,,2023-12-10_18h35.48.872,face_recognition_ERP_protocol,2022.2.5,59.89020925510503,
Celebs/39_Jim_Parsons_0001.jpg,non_target,3,0,3,0,0,57,57,48,,,,,,,,,466.8276292999508,466.8276292999508,467.31160310003906,,,,,,000547wwwwwww,001,,,2023-12-10_18h35.48.872,face_recognition_ERP_protocol,2022.2.5,59.89020925510503,
Celebs/38_Neil_Patrick_Harris_0006.jpg,non_target,3,0,3,0,0,58,58,30,,,,,,,,,467.82927880005445,467.82927880005445,468.3284286999842,,,,,,000547wwwwwww,001,,,2023-12-10_18h35.48.872,face_recognition_ERP_protocol,2022.2.5,59.89020925510503,
Celebs/32_Jim_Parsons_0016.jpg,non_target,3,0,3,0,0,59,59,100,,,,,,,,,468.8298262000317,468.8298262000317,469.31368070002645,,,,,,000547wwwwwww,001,,,2023-12-10_18h35.48.872,face_recognition_ERP_protocol,2022.2.5,59.89020925510503,
Celebs/55_Jackie_Chan_0015.jpg,non_target,3,0,3,0,0,60,60,29,,,,,,,,,469.833567499998,469.833567499998,470.3144704999868,,,,,,000547wwwwwww,001,,,2023-12-10_18h35.48.872,face_recognition_ERP_protocol,2022.2.5,59.89020925510503,
Celebs/16_Emma_Stone_0012.jpg,non_target,3,0,3,0,0,61,61,69,,,,,,,,,470.83567709999625,470.83567709999625,471.3163373999996,,,,,,000547wwwwwww,001,,,2023-12-10_18h35.48.872,face_recognition_ERP_protocol,2022.2.5,59.89020925510503,
Celebs/21_Daniel_Radcliffe_0002.jpg,target,3,0,3,0,0,62,62,59,,,,,,,,,471.8368342999602,471.8368342999602,472.31704390002415,,,,,,000547wwwwwww,001,,,2023-12-10_18h35.48.872,face_recognition_ERP_protocol,2022.2.5,59.89020925510503,
Celebs/16_Emma_Stone_0014.jpg,non_target,3,0,3,0,0,63,63,39,,,,,,,,,472.8364614000311,472.8364614000311,473.3182828000281,,,,,,000547wwwwwww,001,,,2023-12-10_18h35.48.872,face_recognition_ERP_protocol,2022.2.5,59.89020925510503,
Celebs/39_Jim_Parsons_0004.jpg,non_target,3,0,3,0,0,64,64,86,,,,,,,,,473.83529730001464,473.83529730001464,474.30243329994846,,,,,,000547wwwwwww,001,,,2023-12-10_18h35.48.872,face_recognition_ERP_protocol,2022.2.5,59.89020925510503,
