image,stimulus,trial_block.thisRepN,trial_block.thisTrialN,trial_block.thisN,trial_block.thisIndex,trials.thisRepN,trials.thisTrialN,trials.thisN,trials.thisIndex,welcome_text.started,instructions_text.started,spacebar_key.started,spacebar_key.keys,spacebar_key.rt,eye_text.started,eye_text.stopped,text.started,text.stopped,closedEyes_text.started,beep.started,closedEyes_text.stopped,trialImage.started,polygon.started,blank_text.started,trialBlockText.started,new_trialblock.started,new_trialblock.keys,new_trialblock.rt,goodbye_text.started,participant,session,age,gender,date,expName,psychopyVersion,frameRate,
,,,,,,,,,,35.174614100018516,37.17756019998342,37.17756019998342,space,32.98278819996631,,,,,,,,,,,,,,,,000589,00,25,M,2023-06-02_16h22.20.784,face_recognition_ERP_protocol,2022.2.5,59.88981472348976,
Celebs/40_Jim_Parsons_0015.jpg,non_target,0,0,0,0,0,0,0,45,,,,,,70.1802980999928,85.17990440002177,85.17990440002177,100.17997230001492,100.17997230001492,115.17939682999858,115.17938420001883,115.26240120001603,115.26240120001603,115.71331339998869,,,,,,000589,00,25,M,2023-06-02_16h22.20.784,face_recognition_ERP_protocol,2022.2.5,59.88981472348976,
Celebs/43_Will_Smith_0006.jpg,non_target,0,0,0,0,0,1,1,61,,,,,,,,,,,,,116.20514919998823,116.20514919998823,116.69771609996678,,,,,,000589,00,25,M,2023-06-02_16h22.20.784,face_recognition_ERP_protocol,2022.2.5,59.88981472348976,
Celebs/50_Johnny_Depp_0010.jpg,non_target,0,0,0,0,0,2,2,115,,,,,,,,,,,,,117.20466639997903,117.20466639997903,117.69881689996691,,,,,,000589,00,25,M,2023-06-02_16h22.20.784,face_recognition_ERP_protocol,2022.2.5,59.88981472348976,
Celebs/15_Margot_Robbie_0012.jpg,non_target,0,0,0,0,0,3,3,82,,,,,,,,,,,,,118.2395696999738,118.2395696999738,118.69990309997229,,,,,,000589,00,25,M,2023-06-02_16h22.20.784,face_recognition_ERP_protocol,2022.2.5,59.88981472348976,
Celebs/55_Jackie_Chan_0003.jpg,non_target,0,0,0,0,0,4,4,29,,,,,,,,,,,,,119.20227489998797,119.20227489998797,119.70110110001406,,,,,,000589,00,25,M,2023-06-02_16h22.20.784,face_recognition_ERP_protocol,2022.2.5,59.88981472348976,
Celebs/22_Emma_Stone_0013.jpg,non_target,0,0,0,0,0,5,5,1,,,,,,,,,,,,,120.20350409997627,120.20350409997627,120.7021320000058,,,,,,000589,00,25,M,2023-06-02_16h22.20.784,face_recognition_ERP_protocol,2022.2.5,59.88981472348976,
Celebs/23_Emma_Stone_0014.jpg,non_target,0,0,0,0,0,6,6,12,,,,,,,,,,,,,121.2051604000153,121.2051604000153,121.70321150001837,,,,,,000589,00,25,M,2023-06-02_16h22.20.784,face_recognition_ERP_protocol,2022.2.5,59.88981472348976,
Celebs/51_Jackie_Chan_0006.jpg,non_target,0,0,0,0,0,7,7,97,,,,,,,,,,,,,122.20673410000745,122.20673410000745,122.70428319997154,,,,,,000589,00,25,M,2023-06-02_16h22.20.784,face_recognition_ERP_protocol,2022.2.5,59.88981472348976,
Celebs/50_Johnny_Depp_0018.jpg,non_target,0,0,0,0,0,8,8,24,,,,,,,,,,,,,123.20778389996849,123.20778389996849,123.70516860001953,,,,,,000589,00,25,M,2023-06-02_16h22.20.784,face_recognition_ERP_protocol,2022.2.5,59.88981472348976,
Celebs/20_Margot_Robbie_0004.jpg,non_target,0,0,0,0,0,9,9,116,,,,,,,,,,,,,124.21040769998217,124.21040769998217,124.70648140000412,,,,,,000589,00,25,M,2023-06-02_16h22.20.784,face_recognition_ERP_protocol,2022.2.5,59.88981472348976,
Celebs/47_Johnny_Depp_0003.jpg,non_target,0,0,0,0,0,10,10,9,,,,,,,,,,,,,125.21311179996701,125.21311179996701,125.70760319998953,,,,,,000589,00,25,M,2023-06-02_16h22.20.784,face_recognition_ERP_protocol,2022.2.5,59.88981472348976,
Celebs/57_Jackie_Chan_0008.jpg,non_target,0,0,0,0,0,11,11,72,,,,,,,,,,,,,126.21613710001111,126.21613710001111,126.70867730001919,,,,,,000589,00,25,M,2023-06-02_16h22.20.784,face_recognition_ERP_protocol,2022.2.5,59.88981472348976,
Celebs/25_Scarlett_Johansson_0010.jpg,non_target,0,0,0,0,0,12,12,32,,,,,,,,,,,,,127.21136680000927,127.21136680000927,127.70985420001671,,,,,,000589,00,25,M,2023-06-02_16h22.20.784,face_recognition_ERP_protocol,2022.2.5,59.88981472348976,
Celebs/43_Will_Smith_0010.jpg,non_target,0,0,0,0,0,13,13,22,,,,,,,,,,,,,128.217887900013,128.217887900013,128.71133479999844,,,,,,000589,00,25,M,2023-06-02_16h22.20.784,face_recognition_ERP_protocol,2022.2.5,59.88981472348976,
Celebs/19_Margot_Robbie_0001.jpg,non_target,0,0,0,0,0,14,14,51,,,,,,,,,,,,,129.2280294999946,129.2280294999946,129.71198319998803,,,,,,000589,00,25,M,2023-06-02_16h22.20.784,face_recognition_ERP_protocol,2022.2.5,59.88981472348976,
Celebs/44_Will_Smith_0015.jpg,non_target,0,0,0,0,0,15,15,101,,,,,,,,,,,,,130.21816210000543,130.21816210000543,130.71304830000736,,,,,,000589,00,25,M,2023-06-02_16h22.20.784,face_recognition_ERP_protocol,2022.2.5,59.88981472348976,
Celebs/52_Jackie_Chan_0002.jpg,non_target,0,0,0,0,0,16,16,68,,,,,,,,,,,,,131.23439070000313,131.23439070000313,131.6974712999654,,,,,,000589,00,25,M,2023-06-02_16h22.20.784,face_recognition_ERP_protocol,2022.2.5,59.88981472348976,
Celebs/37_Will_Smith_0015.jpg,non_target,0,0,0,0,0,17,17,113,,,,,,,,,,,,,132.23128770000767,132.23128770000767,132.69855159998406,,,,,,000589,00,25,M,2023-06-02_16h22.20.784,face_recognition_ERP_protocol,2022.2.5,59.88981472348976,
Celebs/33_Neil_Patrick_Harris_0011.jpg,non_target,0,0,0,0,0,18,18,112,,,,,,,,,,,,,133.20486860000528,133.20486860000528,133.69945529999677,,,,,,000589,00,25,M,2023-06-02_16h22.20.784,face_recognition_ERP_protocol,2022.2.5,59.88981472348976,
Celebs/50_Jackie_Chan_0014.jpg,non_target,0,0,0,0,0,19,19,38,,,,,,,,,,,,,134.22691430000123,134.22691430000123,134.70092590001877,,,,,,000589,00,25,M,2023-06-02_16h22.20.784,face_recognition_ERP_protocol,2022.2.5,59.88981472348976,
Celebs/32_Jim_Parsons_0010.jpg,non_target,0,0,0,0,0,20,20,98,,,,,,,,,,,,,135.20905609999318,135.20905609999318,135.7018513000221,,,,,,000589,00,25,M,2023-06-02_16h22.20.784,face_recognition_ERP_protocol,2022.2.5,59.88981472348976,
Celebs/18_Daniel_Radcliffe_0007.jpg,target,0,0,0,0,0,21,21,81,,,,,,,,,,,,,136.20446669997182,136.20446669997182,136.70298699999694,,,,,,000589,00,25,M,2023-06-02_16h22.20.784,face_recognition_ERP_protocol,2022.2.5,59.88981472348976,
Celebs/21_Scarlett_Johansson_0007.jpg,non_target,0,0,0,0,0,22,22,118,,,,,,,,,,,,,137.23672950000037,137.23672950000037,137.70403979998082,,,,,,000589,00,25,M,2023-06-02_16h22.20.784,face_recognition_ERP_protocol,2022.2.5,59.88981472348976,
Celebs/45_Will_Smith_0010.jpg,non_target,0,0,0,0,0,23,23,69,,,,,,,,,,,,,138.20709159999387,138.20709159999387,138.70519910001894,,,,,,000589,00,25,M,2023-06-02_16h22.20.784,face_recognition_ERP_protocol,2022.2.5,59.88981472348976,
Celebs/21_Emma_Watson_0004.jpg,non_target,0,0,0,0,0,24,24,21,,,,,,,,,,,,,139.20756389998132,139.20756389998132,139.70622019999428,,,,,,000589,00,25,M,2023-06-02_16h22.20.784,face_recognition_ERP_protocol,2022.2.5,59.88981472348976,
Celebs/21_Daniel_Radcliffe_0008.jpg,target,0,0,0,0,0,25,25,16,,,,,,,,,,,,,140.2086042999872,140.2086042999872,140.7072948999703,,,,,,000589,00,25,M,2023-06-02_16h22.20.784,face_recognition_ERP_protocol,2022.2.5,59.88981472348976,
Celebs/26_Scarlett_Johansson_0003.jpg,non_target,0,0,0,0,0,26,26,105,,,,,,,,,,,,,141.21014819998527,141.21014819998527,141.70841249998193,,,,,,000589,00,25,M,2023-06-02_16h22.20.784,face_recognition_ERP_protocol,2022.2.5,59.88981472348976,
Celebs/16_Emma_Stone_0010.jpg,non_target,0,0,0,0,0,27,27,95,,,,,,,,,,,,,142.21074979996774,142.21074979996774,142.70956350001507,,,,,,000589,00,25,M,2023-06-02_16h22.20.784,face_recognition_ERP_protocol,2022.2.5,59.88981472348976,
Celebs/39_Jim_Parsons_0001.jpg,non_target,0,0,0,0,0,28,28,49,,,,,,,,,,,,,143.21249200002057,143.21249200002057,143.71060069999658,,,,,,000589,00,25,M,2023-06-02_16h22.20.784,face_recognition_ERP_protocol,2022.2.5,59.88981472348976,
Celebs/26_Scarlett_Johansson_0008.jpg,non_target,0,0,0,0,0,29,29,47,,,,,,,,,,,,,144.21178549999604,144.21178549999604,144.7117092999979,,,,,,000589,00,25,M,2023-06-02_16h22.20.784,face_recognition_ERP_protocol,2022.2.5,59.88981472348976,
Celebs/44_Will_Smith_0007.jpg,non_target,0,0,0,0,0,30,30,65,,,,,,,,,,,,,145.21459270000923,145.21459270000923,145.71281190001173,,,,,,000589,00,25,M,2023-06-02_16h22.20.784,face_recognition_ERP_protocol,2022.2.5,59.88981472348976,
Celebs/15_Margot_Robbie_0005.jpg,non_target,0,0,0,0,0,31,31,80,,,,,,,,,,,,,146.21997129998636,146.21997129998636,146.69722979998915,,,,,,000589,00,25,M,2023-06-02_16h22.20.784,face_recognition_ERP_protocol,2022.2.5,59.88981472348976,
Celebs/47_Johnny_Depp_0009.jpg,non_target,0,0,0,0,0,32,32,23,,,,,,,,,,,,,147.20334820001153,147.20334820001153,147.69835839996813,,,,,,000589,00,25,M,2023-06-02_16h22.20.784,face_recognition_ERP_protocol,2022.2.5,59.88981472348976,
Celebs/20_Emma_Stone_0005.jpg,non_target,0,0,0,0,0,33,33,63,,,,,,,,,,,,,148.20780390000436,148.20780390000436,148.69939759996487,,,,,,000589,00,25,M,2023-06-02_16h22.20.784,face_recognition_ERP_protocol,2022.2.5,59.88981472348976,
Celebs/40_Will_Smith_0012.jpg,non_target,0,0,0,0,0,34,34,110,,,,,,,,,,,,,149.20819969999138,149.20819969999138,149.70052949996898,,,,,,000589,00,25,M,2023-06-02_16h22.20.784,face_recognition_ERP_protocol,2022.2.5,59.88981472348976,
Celebs/38_Neil_Patrick_Harris_0006.jpg,non_target,0,0,0,0,0,35,35,31,,,,,,,,,,,,,150.20713910000632,150.20713910000632,150.70160229998874,,,,,,000589,00,25,M,2023-06-02_16h22.20.784,face_recognition_ERP_protocol,2022.2.5,59.88981472348976,
Celebs/35_Neil_Patrick_Harris_0009.jpg,non_target,0,0,0,0,0,36,36,87,,,,,,,,,,,,,151.2074648999842,151.2074648999842,151.70271909999428,,,,,,000589,00,25,M,2023-06-02_16h22.20.784,face_recognition_ERP_protocol,2022.2.5,59.88981472348976,
Celebs/17_Margot_Robbie_0006.jpg,non_target,0,0,0,0,0,37,37,17,,,,,,,,,,,,,152.20790249999845,152.20790249999845,152.7037634999724,,,,,,000589,00,25,M,2023-06-02_16h22.20.784,face_recognition_ERP_protocol,2022.2.5,59.88981472348976,
Celebs/21_Daniel_Radcliffe_0009.jpg,target,0,0,0,0,0,38,38,83,,,,,,,,,,,,,153.20628079999005,153.20628079999005,153.70491309999488,,,,,,000589,00,25,M,2023-06-02_16h22.20.784,face_recognition_ERP_protocol,2022.2.5,59.88981472348976,
Celebs/14_Emma_Watson_0008.jpg,non_target,0,0,0,0,0,39,39,36,,,,,,,,,,,,,154.20530739997048,154.20530739997048,154.70597499998985,,,,,,000589,00,25,M,2023-06-02_16h22.20.784,face_recognition_ERP_protocol,2022.2.5,59.88981472348976,
Celebs/14_Emma_Watson_0004.jpg,non_target,0,0,0,0,0,40,40,14,,,,,,,,,,,,,155.2150007999735,155.2150007999735,155.7069217999815,,,,,,000589,00,25,M,2023-06-02_16h22.20.784,face_recognition_ERP_protocol,2022.2.5,59.88981472348976,
Celebs/38_Will_Smith_0013.jpg,non_target,0,0,0,0,0,41,41,13,,,,,,,,,,,,,156.21365970000625,156.21365970000625,156.70815169997513,,,,,,000589,00,25,M,2023-06-02_16h22.20.784,face_recognition_ERP_protocol,2022.2.5,59.88981472348976,
Celebs/20_Margot_Robbie_0006.jpg,non_target,0,0,0,0,0,42,42,35,,,,,,,,,,,,,157.21452899998985,157.21452899998985,157.70929660002002,,,,,,000589,00,25,M,2023-06-02_16h22.20.784,face_recognition_ERP_protocol,2022.2.5,59.88981472348976,
Celebs/40_Jim_Parsons_0004.jpg,non_target,0,0,0,0,0,43,43,73,,,,,,,,,,,,,158.2170811999822,158.2170811999822,158.71035710000433,,,,,,000589,00,25,M,2023-06-02_16h22.20.784,face_recognition_ERP_protocol,2022.2.5,59.88981472348976,
Celebs/43_Will_Smith_0007.jpg,non_target,0,0,0,0,0,44,44,74,,,,,,,,,,,,,159.2165898999665,159.2165898999665,159.71143879997544,,,,,,000589,00,25,M,2023-06-02_16h22.20.784,face_recognition_ERP_protocol,2022.2.5,59.88981472348976,
Celebs/55_Jackie_Chan_0008.jpg,non_target,0,0,0,0,0,45,45,92,,,,,,,,,,,,,160.2139557999908,160.2139557999908,160.71256690000882,,,,,,000589,00,25,M,2023-06-02_16h22.20.784,face_recognition_ERP_protocol,2022.2.5,59.88981472348976,
Celebs/16_Margot_Robbie_0009.jpg,non_target,0,0,0,0,0,46,46,107,,,,,,,,,,,,,161.2153458999819,161.2153458999819,161.71366979996674,,,,,,000589,00,25,M,2023-06-02_16h22.20.784,face_recognition_ERP_protocol,2022.2.5,59.88981472348976,
Celebs/33_Jim_Parsons_0011.jpg,non_target,0,0,0,0,0,47,47,34,,,,,,,,,,,,,162.1992674000212,162.1992674000212,162.69801009999355,,,,,,000589,00,25,M,2023-06-02_16h22.20.784,face_recognition_ERP_protocol,2022.2.5,59.88981472348976,
Celebs/38_Jim_Parsons_0003.jpg,non_target,0,0,0,0,0,48,48,53,,,,,,,,,,,,,163.20030319999205,163.20030319999205,163.69920600001933,,,,,,000589,00,25,M,2023-06-02_16h22.20.784,face_recognition_ERP_protocol,2022.2.5,59.88981472348976,
Celebs/49_Johnny_Depp_0013.jpg,non_target,0,0,0,0,0,49,49,33,,,,,,,,,,,,,164.20066819997737,164.20066819997737,164.70027420000406,,,,,,000589,00,25,M,2023-06-02_16h22.20.784,face_recognition_ERP_protocol,2022.2.5,59.88981472348976,
Celebs/17_Emma_Watson_0006.jpg,non_target,0,0,0,0,0,50,50,90,,,,,,,,,,,,,165.20370569999795,165.20370569999795,165.701327399991,,,,,,000589,00,25,M,2023-06-02_16h22.20.784,face_recognition_ERP_protocol,2022.2.5,59.88981472348976,
Celebs/18_Emma_Watson_0004.jpg,non_target,0,0,0,0,0,51,51,75,,,,,,,,,,,,,166.20845510001527,166.20845510001527,166.7024579999852,,,,,,000589,00,25,M,2023-06-02_16h22.20.784,face_recognition_ERP_protocol,2022.2.5,59.88981472348976,
Celebs/21_Margot_Robbie_0003.jpg,non_target,0,0,0,0,0,52,52,27,,,,,,,,,,,,,167.20848929998465,167.20848929998465,167.7035197999794,,,,,,000589,00,25,M,2023-06-02_16h22.20.784,face_recognition_ERP_protocol,2022.2.5,59.88981472348976,
Celebs/37_Neil_Patrick_Harris_0014.jpg,non_target,0,0,0,0,0,53,53,37,,,,,,,,,,,,,168.20574140001554,168.20574140001554,168.70465779997176,,,,,,000589,00,25,M,2023-06-02_16h22.20.784,face_recognition_ERP_protocol,2022.2.5,59.88981472348976,
Celebs/39_Jim_Parsons_0008.jpg,non_target,0,0,0,0,0,54,54,89,,,,,,,,,,,,,169.2109005000093,169.2109005000093,169.70571730000665,,,,,,000589,00,25,M,2023-06-02_16h22.20.784,face_recognition_ERP_protocol,2022.2.5,59.88981472348976,
Celebs/18_Daniel_Radcliffe_0002.jpg,target,0,0,0,0,0,55,55,119,,,,,,,,,,,,,170.21173759998055,170.21173759998055,170.70683189999545,,,,,,000589,00,25,M,2023-06-02_16h22.20.784,face_recognition_ERP_protocol,2022.2.5,59.88981472348976,
Celebs/22_Margot_Robbie_0010.jpg,non_target,0,0,0,0,0,56,56,18,,,,,,,,,,,,,171.21387619996676,171.21387619996676,171.70797579997452,,,,,,000589,00,25,M,2023-06-02_16h22.20.784,face_recognition_ERP_protocol,2022.2.5,59.88981472348976,
Celebs/48_Johnny_Depp_0001.jpg,non_target,0,0,0,0,0,57,57,106,,,,,,,,,,,,,172.21371430001454,172.21371430001454,172.7089936999837,,,,,,000589,00,25,M,2023-06-02_16h22.20.784,face_recognition_ERP_protocol,2022.2.5,59.88981472348976,
Celebs/45_Will_Smith_0014.jpg,non_target,0,0,0,0,0,58,58,59,,,,,,,,,,,,,173.21581329999026,173.21581329999026,173.71010069997283,,,,,,000589,00,25,M,2023-06-02_16h22.20.784,face_recognition_ERP_protocol,2022.2.5,59.88981472348976,
Celebs/37_Neil_Patrick_Harris_0010.jpg,non_target,0,0,0,0,0,59,59,93,,,,,,,,,,,,,174.21621929999674,174.21621929999674,174.71087579999585,,,,,,000589,00,25,M,2023-06-02_16h22.20.784,face_recognition_ERP_protocol,2022.2.5,59.88981472348976,
Celebs/27_Scarlett_Johansson_0012.jpg,non_target,0,0,0,0,0,60,60,78,,,,,,,,,,,,,175.21738799999002,175.21738799999002,175.71198570000706,,,,,,000589,00,25,M,2023-06-02_16h22.20.784,face_recognition_ERP_protocol,2022.2.5,59.88981472348976,
Celebs/23_Daniel_Radcliffe_0002.jpg,target,0,0,0,0,0,61,61,77,,,,,,,,,,,,,176.2178341000108,176.2178341000108,176.69669189996785,,,,,,000589,00,25,M,2023-06-02_16h22.20.784,face_recognition_ERP_protocol,2022.2.5,59.88981472348976,
Celebs/36_Neil_Patrick_Harris_0010.jpg,non_target,0,0,0,0,0,62,62,79,,,,,,,,,,,,,177.20313420001185,177.20313420001185,177.6978420999949,,,,,,000589,00,25,M,2023-06-02_16h22.20.784,face_recognition_ERP_protocol,2022.2.5,59.88981472348976,
Celebs/50_Jackie_Chan_0012.jpg,non_target,0,0,0,0,0,63,63,43,,,,,,,,,,,,,178.20453699998325,178.20453699998325,178.6988660999923,,,,,,000589,00,25,M,2023-06-02_16h22.20.784,face_recognition_ERP_protocol,2022.2.5,59.88981472348976,
Celebs/42_Will_Smith_0012.jpg,non_target,0,0,0,0,0,64,64,64,,,,,,,,,,,,,179.2043025000021,179.2043025000021,179.70002430002205,,,,,,000589,00,25,M,2023-06-02_16h22.20.784,face_recognition_ERP_protocol,2022.2.5,59.88981472348976,
Celebs/34_Neil_Patrick_Harris_0007.jpg,non_target,0,0,0,0,0,65,65,117,,,,,,,,,,,,,180.23961119999876,180.23961119999876,180.70112819998758,,,,,,000589,00,25,M,2023-06-02_16h22.20.784,face_recognition_ERP_protocol,2022.2.5,59.88981472348976,
Celebs/21_Emma_Stone_0002.jpg,non_target,0,0,0,0,0,66,66,103,,,,,,,,,,,,,181.20396239997353,181.20396239997353,181.70231859997148,,,,,,000589,00,25,M,2023-06-02_16h22.20.784,face_recognition_ERP_protocol,2022.2.5,59.88981472348976,
Celebs/36_Jim_Parsons_0011.jpg,non_target,0,0,0,0,0,67,67,86,,,,,,,,,,,,,182.20517129998188,182.20517129998188,182.703308199998,,,,,,000589,00,25,M,2023-06-02_16h22.20.784,face_recognition_ERP_protocol,2022.2.5,59.88981472348976,
Celebs/24_Daniel_Radcliffe_0017.jpg,target,0,0,0,0,0,68,68,71,,,,,,,,,,,,,183.20610959996702,183.20610959996702,183.70433069998398,,,,,,000589,00,25,M,2023-06-02_16h22.20.784,face_recognition_ERP_protocol,2022.2.5,59.88981472348976,
Celebs/16_Emma_Stone_0008.jpg,non_target,0,0,0,0,0,69,69,48,,,,,,,,,,,,,184.20634659996722,184.20634659996722,184.7054599999683,,,,,,000589,00,25,M,2023-06-02_16h22.20.784,face_recognition_ERP_protocol,2022.2.5,59.88981472348976,
Celebs/55_Jackie_Chan_0015.jpg,non_target,0,0,0,0,0,70,70,30,,,,,,,,,,,,,185.20823659998132,185.20823659998132,185.70655020000413,,,,,,000589,00,25,M,2023-06-02_16h22.20.784,face_recognition_ERP_protocol,2022.2.5,59.88981472348976,
Celebs/39_Neil_Patrick_Harris_0010.jpg,non_target,0,0,0,0,0,71,71,94,,,,,,,,,,,,,186.20933639997384,186.20933639997384,186.7076624999754,,,,,,000589,00,25,M,2023-06-02_16h22.20.784,face_recognition_ERP_protocol,2022.2.5,59.88981472348976,
Celebs/39_Jim_Parsons_0004.jpg,non_target,0,0,0,0,0,72,72,88,,,,,,,,,,,,,187.2145272999769,187.2145272999769,187.70882900001016,,,,,,000589,00,25,M,2023-06-02_16h22.20.784,face_recognition_ERP_protocol,2022.2.5,59.88981472348976,
Celebs/32_Jim_Parsons_0018.jpg,non_target,0,0,0,0,0,73,73,46,,,,,,,,,,,,,188.21725370001514,188.21725370001514,188.71028120000847,,,,,,000589,00,25,M,2023-06-02_16h22.20.784,face_recognition_ERP_protocol,2022.2.5,59.88981472348976,
Celebs/24_Emma_Stone_0015.jpg,non_target,0,0,0,0,0,74,74,57,,,,,,,,,,,,,189.22697770001832,189.22697770001832,189.71092189999763,,,,,,000589,00,25,M,2023-06-02_16h22.20.784,face_recognition_ERP_protocol,2022.2.5,59.88981472348976,
Celebs/22_Emma_Watson_0001.jpg,non_target,0,0,0,0,0,75,75,58,,,,,,,,,,,,,190.21751699998276,190.21751699998276,190.71201179997297,,,,,,000589,00,25,M,2023-06-02_16h22.20.784,face_recognition_ERP_protocol,2022.2.5,59.88981472348976,
Celebs/16_Emma_Stone_0012.jpg,non_target,0,0,0,0,0,76,76,70,,,,,,,,,,,,,191.21418160002213,191.21418160002213,191.71313300001202,,,,,,000589,00,25,M,2023-06-02_16h22.20.784,face_recognition_ERP_protocol,2022.2.5,59.88981472348976,
Celebs/16_Emma_Stone_0014.jpg,non_target,0,0,0,0,0,77,77,40,,,,,,,,,,,,,192.20294889999786,192.20294889999786,192.69757929997286,,,,,,000589,00,25,M,2023-06-02_16h22.20.784,face_recognition_ERP_protocol,2022.2.5,59.88981472348976,
Celebs/45_Johnny_Depp_0003.jpg,non_target,0,0,0,0,0,78,78,108,,,,,,,,,,,,,193.2009883999708,193.2009883999708,193.69861289998516,,,,,,000589,00,25,M,2023-06-02_16h22.20.784,face_recognition_ERP_protocol,2022.2.5,59.88981472348976,
Celebs/50_Johnny_Depp_0004.jpg,non_target,0,0,0,0,0,79,79,39,,,,,,,,,,,,,194.2155338000157,194.2155338000157,194.69975979998708,,,,,,000589,00,25,M,2023-06-02_16h22.20.784,face_recognition_ERP_protocol,2022.2.5,59.88981472348976,
Celebs/14_Emma_Watson_0005.jpg,non_target,0,0,0,0,0,80,80,26,,,,,,,,,,,,,195.20577790000243,195.20577790000243,195.7008238999988,,,,,,000589,00,25,M,2023-06-02_16h22.20.784,face_recognition_ERP_protocol,2022.2.5,59.88981472348976,
Celebs/22_Scarlett_Johansson_0005.jpg,non_target,0,0,0,0,0,81,81,44,,,,,,,,,,,,,196.21084580000024,196.21084580000024,196.70162519998848,,,,,,000589,00,25,M,2023-06-02_16h22.20.784,face_recognition_ERP_protocol,2022.2.5,59.88981472348976,
Celebs/29_Scarlett_Johansson_0016.jpg,non_target,0,0,0,0,0,82,82,2,,,,,,,,,,,,,197.20876740000676,197.20876740000676,197.704980599985,,,,,,000589,00,25,M,2023-06-02_16h22.20.784,face_recognition_ERP_protocol,2022.2.5,59.88981472348976,
Celebs/23_Daniel_Radcliffe_0019.jpg,target,0,0,0,0,0,83,83,6,,,,,,,,,,,,,198.20532499998808,198.20532499998808,198.70407799998065,,,,,,000589,00,25,M,2023-06-02_16h22.20.784,face_recognition_ERP_protocol,2022.2.5,59.88981472348976,
Celebs/17_Margot_Robbie_0012.jpg,non_target,0,0,0,0,0,84,84,67,,,,,,,,,,,,,199.21199659997365,199.21199659997365,199.70521539996844,,,,,,000589,00,25,M,2023-06-02_16h22.20.784,face_recognition_ERP_protocol,2022.2.5,59.88981472348976,
Celebs/28_Scarlett_Johansson_0005.jpg,non_target,0,0,0,0,0,85,85,50,,,,,,,,,,,,,200.21115749998717,200.21115749998717,200.70628899999429,,,,,,000589,00,25,M,2023-06-02_16h22.20.784,face_recognition_ERP_protocol,2022.2.5,59.88981472348976,
Celebs/24_Scarlett_Johansson_0011.jpg,non_target,0,0,0,0,0,86,86,100,,,,,,,,,,,,,201.21456940000644,201.21456940000644,201.70740109996404,,,,,,000589,00,25,M,2023-06-02_16h22.20.784,face_recognition_ERP_protocol,2022.2.5,59.88981472348976,
Celebs/18_Emma_Stone_0016.jpg,non_target,0,0,0,0,0,87,87,52,,,,,,,,,,,,,202.20975659997202,202.20975659997202,202.70845380000537,,,,,,000589,00,25,M,2023-06-02_16h22.20.784,face_recognition_ERP_protocol,2022.2.5,59.88981472348976,
Celebs/32_Jim_Parsons_0016.jpg,non_target,0,0,0,0,0,88,88,102,,,,,,,,,,,,,203.21089009998832,203.21089009998832,203.7096322000143,,,,,,000589,00,25,M,2023-06-02_16h22.20.784,face_recognition_ERP_protocol,2022.2.5,59.88981472348976,
Celebs/21_Daniel_Radcliffe_0012.jpg,target,0,0,0,0,0,89,89,8,,,,,,,,,,,,,204.21191489999183,204.21191489999183,204.71068710001418,,,,,,000589,00,25,M,2023-06-02_16h22.20.784,face_recognition_ERP_protocol,2022.2.5,59.88981472348976,
Celebs/58_Jackie_Chan_0005.jpg,non_target,0,0,0,0,0,90,90,3,,,,,,,,,,,,,205.21305299998494,205.21305299998494,205.71174699999392,,,,,,000589,00,25,M,2023-06-02_16h22.20.784,face_recognition_ERP_protocol,2022.2.5,59.88981472348976,
Celebs/47_Johnny_Depp_0004.jpg,non_target,0,0,0,0,0,91,91,76,,,,,,,,,,,,,206.21400540001923,206.21400540001923,206.71284399996512,,,,,,000589,00,25,M,2023-06-02_16h22.20.784,face_recognition_ERP_protocol,2022.2.5,59.88981472348976,
Celebs/48_Johnny_Depp_0005.jpg,non_target,0,0,0,0,0,92,92,54,,,,,,,,,,,,,207.21588179998798,207.21588179998798,207.69727539998712,,,,,,000589,00,25,M,2023-06-02_16h22.20.784,face_recognition_ERP_protocol,2022.2.5,59.88981472348976,
Celebs/17_Daniel_Radcliffe_0007.jpg,target,0,0,0,0,0,93,93,19,,,,,,,,,,,,,208.21443839999847,208.21443839999847,208.69838529999834,,,,,,000589,00,25,M,2023-06-02_16h22.20.784,face_recognition_ERP_protocol,2022.2.5,59.88981472348976,
Celebs/21_Daniel_Radcliffe_0002.jpg,target,0,0,0,0,0,94,94,60,,,,,,,,,,,,,209.2352667999803,209.2352667999803,209.6994340000092,,,,,,000589,00,25,M,2023-06-02_16h22.20.784,face_recognition_ERP_protocol,2022.2.5,59.88981472348976,
Celebs/20_Emma_Watson_0007.jpg,non_target,0,0,0,0,0,95,95,96,,,,,,,,,,,,,210.2055110000074,210.2055110000074,210.7005700999871,,,,,,000589,00,25,M,2023-06-02_16h22.20.784,face_recognition_ERP_protocol,2022.2.5,59.88981472348976,
Celebs/22_Emma_Watson_0010.jpg,non_target,0,0,0,0,0,96,96,11,,,,,,,,,,,,,211.20879710000008,211.20879710000008,211.70169169997098,,,,,,000589,00,25,M,2023-06-02_16h22.20.784,face_recognition_ERP_protocol,2022.2.5,59.88981472348976,
Celebs/54_Jackie_Chan_0001.jpg,non_target,0,0,0,0,0,97,97,7,,,,,,,,,,,,,212.20871599996462,212.20871599996462,212.70282609999413,,,,,,000589,00,25,M,2023-06-02_16h22.20.784,face_recognition_ERP_protocol,2022.2.5,59.88981472348976,
Celebs/39_Neil_Patrick_Harris_0001.jpg,non_target,0,0,0,0,0,98,98,4,,,,,,,,,,,,,213.2090068999678,213.2090068999678,213.7038255999796,,,,,,000589,00,25,M,2023-06-02_16h22.20.784,face_recognition_ERP_protocol,2022.2.5,59.88981472348976,
Celebs/34_Neil_Patrick_Harris_0004.jpg,non_target,0,0,0,0,0,99,99,104,,,,,,,,,,,,,214.21026359999087,214.21026359999087,214.7050193999894,,,,,,000589,00,25,M,2023-06-02_16h22.20.784,face_recognition_ERP_protocol,2022.2.5,59.88981472348976,
Celebs/44_Will_Smith_0006.jpg,non_target,0,0,0,0,0,100,100,41,,,,,,,,,,,,,215.21129150001798,215.21129150001798,215.70604540000204,,,,,,000589,00,25,M,2023-06-02_16h22.20.784,face_recognition_ERP_protocol,2022.2.5,59.88981472348976,
Celebs/17_Margot_Robbie_0014.jpg,non_target,0,0,0,0,0,101,101,114,,,,,,,,,,,,,216.2127469999832,216.2127469999832,216.70706729998346,,,,,,000589,00,25,M,2023-06-02_16h22.20.784,face_recognition_ERP_protocol,2022.2.5,59.88981472348976,
Celebs/54_Jackie_Chan_0014.jpg,non_target,0,0,0,0,0,102,102,111,,,,,,,,,,,,,217.20969390001846,217.20969390001846,217.70785870001419,,,,,,000589,00,25,M,2023-06-02_16h22.20.784,face_recognition_ERP_protocol,2022.2.5,59.88981472348976,
Celebs/31_Neil_Patrick_Harris_0008.jpg,non_target,0,0,0,0,0,103,103,99,,,,,,,,,,,,,218.2106563000125,218.2106563000125,218.70897749997675,,,,,,000589,00,25,M,2023-06-02_16h22.20.784,face_recognition_ERP_protocol,2022.2.5,59.88981472348976,
Celebs/20_Scarlett_Johansson_0011.jpg,non_target,0,0,0,0,0,104,104,109,,,,,,,,,,,,,219.2180609999923,219.2180609999923,219.7104506000178,,,,,,000589,00,25,M,2023-06-02_16h22.20.784,face_recognition_ERP_protocol,2022.2.5,59.88981472348976,
Celebs/50_Johnny_Depp_0008.jpg,non_target,0,0,0,0,0,105,105,84,,,,,,,,,,,,,220.21689430001425,220.21689430001425,220.71160520002013,,,,,,000589,00,25,M,2023-06-02_16h22.20.784,face_recognition_ERP_protocol,2022.2.5,59.88981472348976,
Celebs/19_Margot_Robbie_0004.jpg,non_target,0,0,0,0,0,106,106,42,,,,,,,,,,,,,221.2173621999682,221.2173621999682,221.7126125000068,,,,,,000589,00,25,M,2023-06-02_16h22.20.784,face_recognition_ERP_protocol,2022.2.5,59.88981472348976,
Celebs/19_Emma_Stone_0006.jpg,non_target,0,0,0,0,0,107,107,66,,,,,,,,,,,,,222.21867789997486,222.21867789997486,222.69701990002068,,,,,,000589,00,25,M,2023-06-02_16h22.20.784,face_recognition_ERP_protocol,2022.2.5,59.88981472348976,
Celebs/14_Emma_Watson_0013.jpg,non_target,0,0,0,0,0,108,108,20,,,,,,,,,,,,,223.2001785999746,223.2001785999746,223.6981227999786,,,,,,000589,00,25,M,2023-06-02_16h22.20.784,face_recognition_ERP_protocol,2022.2.5,59.88981472348976,
Celebs/57_Jackie_Chan_0010.jpg,non_target,0,0,0,0,0,109,109,62,,,,,,,,,,,,,224.20032900001388,224.20032900001388,224.69929229997797,,,,,,000589,00,25,M,2023-06-02_16h22.20.784,face_recognition_ERP_protocol,2022.2.5,59.88981472348976,
Celebs/48_Johnny_Depp_0003.jpg,non_target,0,0,0,0,0,110,110,55,,,,,,,,,,,,,225.20162209996488,225.20162209996488,225.7002784999786,,,,,,000589,00,25,M,2023-06-02_16h22.20.784,face_recognition_ERP_protocol,2022.2.5,59.88981472348976,
Celebs/24_Scarlett_Johansson_0001.jpg,non_target,0,0,0,0,0,111,111,10,,,,,,,,,,,,,226.20261849998496,226.20261849998496,226.701429800014,,,,,,000589,00,25,M,2023-06-02_16h22.20.784,face_recognition_ERP_protocol,2022.2.5,59.88981472348976,
Celebs/39_Jim_Parsons_0010.jpg,non_target,0,0,0,0,0,112,112,0,,,,,,,,,,,,,227.20371229999,227.20371229999,227.70263129996601,,,,,,000589,00,25,M,2023-06-02_16h22.20.784,face_recognition_ERP_protocol,2022.2.5,59.88981472348976,
Celebs/18_Daniel_Radcliffe_0008.jpg,target,0,0,0,0,0,113,113,28,,,,,,,,,,,,,228.20406790002016,228.20406790002016,228.70358540001325,,,,,,000589,00,25,M,2023-06-02_16h22.20.784,face_recognition_ERP_protocol,2022.2.5,59.88981472348976,
Celebs/36_Neil_Patrick_Harris_0007.jpg,non_target,0,0,0,0,0,114,114,5,,,,,,,,,,,,,229.206024300016,229.206024300016,229.7047355999821,,,,,,000589,00,25,M,2023-06-02_16h22.20.784,face_recognition_ERP_protocol,2022.2.5,59.88981472348976,
Celebs/21_Emma_Stone_0003.jpg,non_target,0,0,0,0,0,115,115,25,,,,,,,,,,,,,230.21092939999653,230.21092939999653,230.70579229999566,,,,,,000589,00,25,M,2023-06-02_16h22.20.784,face_recognition_ERP_protocol,2022.2.5,59.88981472348976,
Celebs/14_Emma_Watson_0015.jpg,non_target,0,0,0,0,0,116,116,56,,,,,,,,,,,,,231.21165579999797,231.21165579999797,231.70688710000832,,,,,,000589,00,25,M,2023-06-02_16h22.20.784,face_recognition_ERP_protocol,2022.2.5,59.88981472348976,
Celebs/29_Scarlett_Johansson_0010.jpg,non_target,0,0,0,0,0,117,117,85,,,,,,,,,,,,,232.20987329998752,232.20987329998752,232.70795650000218,,,,,,000589,00,25,M,2023-06-02_16h22.20.784,face_recognition_ERP_protocol,2022.2.5,59.88981472348976,
Celebs/22_Emma_Watson_0003.jpg,non_target,0,0,0,0,0,118,118,91,,,,,,,,,,,,,233.2111718999804,233.2111718999804,233.7090656000073,,,,,,000589,00,25,M,2023-06-02_16h22.20.784,face_recognition_ERP_protocol,2022.2.5,59.88981472348976,
Celebs/23_Daniel_Radcliffe_0010.jpg,target,0,0,0,0,0,119,119,15,,,,,,,,,,,,,234.214771799976,234.214771799976,234.71018110000296,,,,,,000589,00,25,M,2023-06-02_16h22.20.784,face_recognition_ERP_protocol,2022.2.5,59.88981472348976,
Celebs/42_Will_Smith_0012.jpg,non_target,1,0,1,0,0,0,0,64,,,,,,,,,,,,,252.0281149999937,252.0281149999937,252.49626639997587,235.22964889998548,235.22964889998548,space,16.722923399996944,,000589,00,25,M,2023-06-02_16h22.20.784,face_recognition_ERP_protocol,2022.2.5,59.88981472348976,
Celebs/16_Emma_Stone_0012.jpg,non_target,1,0,1,0,0,1,1,70,,,,,,,,,,,,,252.99758949998068,252.99758949998068,253.49735489999875,,,,,,000589,00,25,M,2023-06-02_16h22.20.784,face_recognition_ERP_protocol,2022.2.5,59.88981472348976,
Celebs/47_Johnny_Depp_0004.jpg,non_target,1,0,1,0,0,2,2,76,,,,,,,,,,,,,253.99856579996413,253.99856579996413,254.49847629998112,,,,,,000589,00,25,M,2023-06-02_16h22.20.784,face_recognition_ERP_protocol,2022.2.5,59.88981472348976,
Celebs/19_Margot_Robbie_0001.jpg,non_target,1,0,1,0,0,3,3,51,,,,,,,,,,,,,254.99962939997204,254.99962939997204,255.49920869997004,,,,,,000589,00,25,M,2023-06-02_16h22.20.784,face_recognition_ERP_protocol,2022.2.5,59.88981472348976,
Celebs/14_Emma_Watson_0008.jpg,non_target,1,0,1,0,0,4,4,36,,,,,,,,,,,,,256.00095429999055,256.00095429999055,256.5007195000071,,,,,,000589,00,25,M,2023-06-02_16h22.20.784,face_recognition_ERP_protocol,2022.2.5,59.88981472348976,
Celebs/50_Johnny_Depp_0010.jpg,non_target,1,0,1,0,0,5,5,115,,,,,,,,,,,,,257.0018482999876,257.0018482999876,257.5018387999735,,,,,,000589,00,25,M,2023-06-02_16h22.20.784,face_recognition_ERP_protocol,2022.2.5,59.88981472348976,
Celebs/20_Emma_Stone_0005.jpg,non_target,1,0,1,0,0,6,6,63,,,,,,,,,,,,,258.0035995999933,258.0035995999933,258.5028404999757,,,,,,000589,00,25,M,2023-06-02_16h22.20.784,face_recognition_ERP_protocol,2022.2.5,59.88981472348976,
Celebs/18_Emma_Watson_0004.jpg,non_target,1,0,1,0,0,7,7,75,,,,,,,,,,,,,259.00393740000436,259.00393740000436,259.48726429999806,,,,,,000589,00,25,M,2023-06-02_16h22.20.784,face_recognition_ERP_protocol,2022.2.5,59.88981472348976,
Celebs/55_Jackie_Chan_0008.jpg,non_target,1,0,1,0,0,8,8,92,,,,,,,,,,,,,259.9882020999794,259.9882020999794,260.48837869998533,,,,,,000589,00,25,M,2023-06-02_16h22.20.784,face_recognition_ERP_protocol,2022.2.5,59.88981472348976,
Celebs/15_Margot_Robbie_0005.jpg,non_target,1,0,1,0,0,9,9,80,,,,,,,,,,,,,260.98934729996836,260.98934729996836,261.48944069998106,,,,,,000589,00,25,M,2023-06-02_16h22.20.784,face_recognition_ERP_protocol,2022.2.5,59.88981472348976,
Celebs/43_Will_Smith_0010.jpg,non_target,1,0,1,0,0,10,10,22,,,,,,,,,,,,,261.99044979998143,261.99044979998143,262.4905406999751,,,,,,000589,00,25,M,2023-06-02_16h22.20.784,face_recognition_ERP_protocol,2022.2.5,59.88981472348976,
Celebs/37_Will_Smith_0015.jpg,non_target,1,0,1,0,0,11,11,113,,,,,,,,,,,,,262.9914488000213,262.9914488000213,263.49164869997185,,,,,,000589,00,25,M,2023-06-02_16h22.20.784,face_recognition_ERP_protocol,2022.2.5,59.88981472348976,
Celebs/50_Johnny_Depp_0004.jpg,non_target,1,0,1,0,0,12,12,39,,,,,,,,,,,,,263.9927088000113,263.9927088000113,264.4927607999998,,,,,,000589,00,25,M,2023-06-02_16h22.20.784,face_recognition_ERP_protocol,2022.2.5,59.88981472348976,
Celebs/39_Jim_Parsons_0008.jpg,non_target,1,0,1,0,0,13,13,89,,,,,,,,,,,,,264.99380749999546,264.99380749999546,265.4938105000183,,,,,,000589,00,25,M,2023-06-02_16h22.20.784,face_recognition_ERP_protocol,2022.2.5,59.88981472348976,
Celebs/40_Will_Smith_0012.jpg,non_target,1,0,1,0,0,14,14,110,,,,,,,,,,,,,265.99413479998475,265.99413479998475,266.49491050001234,,,,,,000589,00,25,M,2023-06-02_16h22.20.784,face_recognition_ERP_protocol,2022.2.5,59.88981472348976,
Celebs/58_Jackie_Chan_0005.jpg,non_target,1,0,1,0,0,15,15,3,,,,,,,,,,,,,266.99721080000745,266.99721080000745,267.4960315999924,,,,,,000589,00,25,M,2023-06-02_16h22.20.784,face_recognition_ERP_protocol,2022.2.5,59.88981472348976,
Celebs/55_Jackie_Chan_0003.jpg,non_target,1,0,1,0,0,16,16,29,,,,,,,,,,,,,267.99725249997573,267.99725249997573,268.4971094999928,,,,,,000589,00,25,M,2023-06-02_16h22.20.784,face_recognition_ERP_protocol,2022.2.5,59.88981472348976,
Celebs/35_Neil_Patrick_Harris_0009.jpg,non_target,1,0,1,0,0,17,17,87,,,,,,,,,,,,,268.99818960000994,268.99818960000994,269.49824470002204,,,,,,000589,00,25,M,2023-06-02_16h22.20.784,face_recognition_ERP_protocol,2022.2.5,59.88981472348976,
Celebs/27_Scarlett_Johansson_0012.jpg,non_target,1,0,1,0,0,18,18,78,,,,,,,,,,,,,269.9992490999866,269.9992490999866,270.4993388999719,,,,,,000589,00,25,M,2023-06-02_16h22.20.784,face_recognition_ERP_protocol,2022.2.5,59.88981472348976,
Celebs/14_Emma_Watson_0004.jpg,non_target,1,0,1,0,0,19,19,14,,,,,,,,,,,,,271.0003433999955,271.0003433999955,271.50052559998585,,,,,,000589,00,25,M,2023-06-02_16h22.20.784,face_recognition_ERP_protocol,2022.2.5,59.88981472348976,
Celebs/49_Johnny_Depp_0013.jpg,non_target,1,0,1,0,0,20,20,33,,,,,,,,,,,,,272.0014185999753,272.0014185999753,272.50140529999044,,,,,,000589,00,25,M,2023-06-02_16h22.20.784,face_recognition_ERP_protocol,2022.2.5,59.88981472348976,
Celebs/23_Daniel_Radcliffe_0002.jpg,target,1,0,1,0,0,21,21,77,,,,,,,,,,,,,273.0026744999923,273.0026744999923,273.5026131999912,,,,,,000589,00,25,M,2023-06-02_16h22.20.784,face_recognition_ERP_protocol,2022.2.5,59.88981472348976,
Celebs/29_Scarlett_Johansson_0010.jpg,non_target,1,0,1,0,0,22,22,85,,,,,,,,,,,,,274.003844699997,274.003844699997,274.5036907999893,,,,,,000589,00,25,M,2023-06-02_16h22.20.784,face_recognition_ERP_protocol,2022.2.5,59.88981472348976,
Celebs/19_Emma_Stone_0006.jpg,non_target,1,0,1,0,0,23,23,66,,,,,,,,,,,,,274.9879703000188,274.9879703000188,275.4880854000221,,,,,,000589,00,25,M,2023-06-02_16h22.20.784,face_recognition_ERP_protocol,2022.2.5,59.88981472348976,
Celebs/17_Margot_Robbie_0012.jpg,non_target,1,0,1,0,0,24,24,67,,,,,,,,,,,,,275.9893893999979,275.9893893999979,276.489175900002,,,,,,000589,00,25,M,2023-06-02_16h22.20.784,face_recognition_ERP_protocol,2022.2.5,59.88981472348976,
Celebs/19_Margot_Robbie_0004.jpg,non_target,1,0,1,0,0,25,25,42,,,,,,,,,,,,,276.99006450001616,276.99006450001616,277.4902950999676,,,,,,000589,00,25,M,2023-06-02_16h22.20.784,face_recognition_ERP_protocol,2022.2.5,59.88981472348976,
Celebs/50_Jackie_Chan_0014.jpg,non_target,1,0,1,0,0,26,26,38,,,,,,,,,,,,,277.9912746999762,277.9912746999762,278.49121840001317,,,,,,000589,00,25,M,2023-06-02_16h22.20.784,face_recognition_ERP_protocol,2022.2.5,59.88981472348976,
Celebs/55_Jackie_Chan_0015.jpg,non_target,1,0,1,0,0,27,27,30,,,,,,,,,,,,,278.9925935000065,278.9925935000065,279.4924831999815,,,,,,000589,00,25,M,2023-06-02_16h22.20.784,face_recognition_ERP_protocol,2022.2.5,59.88981472348976,
Celebs/20_Margot_Robbie_0004.jpg,non_target,1,0,1,0,0,28,28,116,,,,,,,,,,,,,279.9933215000201,279.9933215000201,280.493616199994,,,,,,000589,00,25,M,2023-06-02_16h22.20.784,face_recognition_ERP_protocol,2022.2.5,59.88981472348976,
Celebs/38_Will_Smith_0013.jpg,non_target,1,0,1,0,0,29,29,13,,,,,,,,,,,,,280.9943943999824,280.9943943999824,281.4946669000201,,,,,,000589,00,25,M,2023-06-02_16h22.20.784,face_recognition_ERP_protocol,2022.2.5,59.88981472348976,
Celebs/50_Johnny_Depp_0018.jpg,non_target,1,0,1,0,0,30,30,24,,,,,,,,,,,,,281.995832399989,281.995832399989,282.4958210000186,,,,,,000589,00,25,M,2023-06-02_16h22.20.784,face_recognition_ERP_protocol,2022.2.5,59.88981472348976,
Celebs/44_Will_Smith_0007.jpg,non_target,1,0,1,0,0,31,31,65,,,,,,,,,,,,,282.9968096999801,282.9968096999801,283.49685449997196,,,,,,000589,00,25,M,2023-06-02_16h22.20.784,face_recognition_ERP_protocol,2022.2.5,59.88981472348976,
Celebs/38_Jim_Parsons_0003.jpg,non_target,1,0,1,0,0,32,32,53,,,,,,,,,,,,,283.99780949996784,283.99780949996784,284.49794219998876,,,,,,000589,00,25,M,2023-06-02_16h22.20.784,face_recognition_ERP_protocol,2022.2.5,59.88981472348976,
Celebs/24_Emma_Stone_0015.jpg,non_target,1,0,1,0,0,33,33,57,,,,,,,,,,,,,284.99892360001104,284.99892360001104,285.49905059998855,,,,,,000589,00,25,M,2023-06-02_16h22.20.784,face_recognition_ERP_protocol,2022.2.5,59.88981472348976,
Celebs/51_Jackie_Chan_0006.jpg,non_target,1,0,1,0,0,34,34,97,,,,,,,,,,,,,286.0000461000018,286.0000461000018,286.50020429998403,,,,,,000589,00,25,M,2023-06-02_16h22.20.784,face_recognition_ERP_protocol,2022.2.5,59.88981472348976,
Celebs/20_Emma_Watson_0007.jpg,non_target,1,0,1,0,0,35,35,96,,,,,,,,,,,,,287.00146429997403,287.00146429997403,287.5012110999669,,,,,,000589,00,25,M,2023-06-02_16h22.20.784,face_recognition_ERP_protocol,2022.2.5,59.88981472348976,
Celebs/21_Emma_Stone_0002.jpg,non_target,1,0,1,0,0,36,36,103,,,,,,,,,,,,,288.00319459999446,288.00319459999446,288.50237289996585,,,,,,000589,00,25,M,2023-06-02_16h22.20.784,face_recognition_ERP_protocol,2022.2.5,59.88981472348976,
Celebs/23_Daniel_Radcliffe_0010.jpg,target,1,0,1,0,0,37,37,15,,,,,,,,,,,,,289.00339510000776,289.00339510000776,289.48672129999613,,,,,,000589,00,25,M,2023-06-02_16h22.20.784,face_recognition_ERP_protocol,2022.2.5,59.88981472348976,
Celebs/31_Neil_Patrick_Harris_0008.jpg,non_target,1,0,1,0,0,38,38,99,,,,,,,,,,,,,289.9905451000086,289.9905451000086,290.4878251000191,,,,,,000589,00,25,M,2023-06-02_16h22.20.784,face_recognition_ERP_protocol,2022.2.5,59.88981472348976,
Celebs/43_Will_Smith_0006.jpg,non_target,1,0,1,0,0,39,39,61,,,,,,,,,,,,,290.98885449999943,290.98885449999943,291.4895412999904,,,,,,000589,00,25,M,2023-06-02_16h22.20.784,face_recognition_ERP_protocol,2022.2.5,59.88981472348976,
Celebs/34_Neil_Patrick_Harris_0004.jpg,non_target,1,0,1,0,0,40,40,104,,,,,,,,,,,,,291.9898679999751,291.9898679999751,292.4901504999725,,,,,,000589,00,25,M,2023-06-02_16h22.20.784,face_recognition_ERP_protocol,2022.2.5,59.88981472348976,
Celebs/45_Will_Smith_0010.jpg,non_target,1,0,1,0,0,41,41,69,,,,,,,,,,,,,292.9910394999897,292.9910394999897,293.4912952000159,,,,,,000589,00,25,M,2023-06-02_16h22.20.784,face_recognition_ERP_protocol,2022.2.5,59.88981472348976,
Celebs/45_Will_Smith_0014.jpg,non_target,1,0,1,0,0,42,42,59,,,,,,,,,,,,,293.9923090999946,293.9923090999946,294.49237940000603,,,,,,000589,00,25,M,2023-06-02_16h22.20.784,face_recognition_ERP_protocol,2022.2.5,59.88981472348976,
Celebs/21_Margot_Robbie_0003.jpg,non_target,1,0,1,0,0,43,43,27,,,,,,,,,,,,,294.99318300001323,294.99318300001323,295.4933127000113,,,,,,000589,00,25,M,2023-06-02_16h22.20.784,face_recognition_ERP_protocol,2022.2.5,59.88981472348976,
Celebs/38_Neil_Patrick_Harris_0006.jpg,non_target,1,0,1,0,0,44,44,31,,,,,,,,,,,,,295.99430349998875,295.99430349998875,296.494432699983,,,,,,000589,00,25,M,2023-06-02_16h22.20.784,face_recognition_ERP_protocol,2022.2.5,59.88981472348976,
Celebs/28_Scarlett_Johansson_0005.jpg,non_target,1,0,1,0,0,45,45,50,,,,,,,,,,,,,296.99553710001055,296.99553710001055,297.49558059999254,,,,,,000589,00,25,M,2023-06-02_16h22.20.784,face_recognition_ERP_protocol,2022.2.5,59.88981472348976,
Celebs/44_Will_Smith_0015.jpg,non_target,1,0,1,0,0,46,46,101,,,,,,,,,,,,,297.9965022999677,297.9965022999677,298.49649019999197,,,,,,000589,00,25,M,2023-06-02_16h22.20.784,face_recognition_ERP_protocol,2022.2.5,59.88981472348976,
Celebs/39_Neil_Patrick_Harris_0010.jpg,non_target,1,0,1,0,0,47,47,94,,,,,,,,,,,,,298.9976449999958,298.9976449999958,299.497354799998,,,,,,000589,00,25,M,2023-06-02_16h22.20.784,face_recognition_ERP_protocol,2022.2.5,59.88981472348976,
Celebs/54_Jackie_Chan_0014.jpg,non_target,1,0,1,0,0,48,48,111,,,,,,,,,,,,,299.9986262000166,299.9986262000166,300.49879779998446,,,,,,000589,00,25,M,2023-06-02_16h22.20.784,face_recognition_ERP_protocol,2022.2.5,59.88981472348976,
Celebs/37_Neil_Patrick_Harris_0010.jpg,non_target,1,0,1,0,0,49,49,93,,,,,,,,,,,,,300.9997964000213,300.9997964000213,301.50000499997986,,,,,,000589,00,25,M,2023-06-02_16h22.20.784,face_recognition_ERP_protocol,2022.2.5,59.88981472348976,
Celebs/21_Emma_Watson_0004.jpg,non_target,1,0,1,0,0,50,50,21,,,,,,,,,,,,,302.0009584999643,302.0009584999643,302.50098050001543,,,,,,000589,00,25,M,2023-06-02_16h22.20.784,face_recognition_ERP_protocol,2022.2.5,59.88981472348976,
Celebs/26_Scarlett_Johansson_0008.jpg,non_target,1,0,1,0,0,51,51,47,,,,,,,,,,,,,303.00200340000447,303.00200340000447,303.5021765999845,,,,,,000589,00,25,M,2023-06-02_16h22.20.784,face_recognition_ERP_protocol,2022.2.5,59.88981472348976,
Celebs/24_Scarlett_Johansson_0001.jpg,non_target,1,0,1,0,0,52,52,10,,,,,,,,,,,,,304.0029276999994,304.0029276999994,304.50319770001806,,,,,,000589,00,25,M,2023-06-02_16h22.20.784,face_recognition_ERP_protocol,2022.2.5,59.88981472348976,
Celebs/24_Scarlett_Johansson_0011.jpg,non_target,1,0,1,0,0,53,53,100,,,,,,,,,,,,,305.00406259996817,305.00406259996817,305.4875579000218,,,,,,000589,00,25,M,2023-06-02_16h22.20.784,face_recognition_ERP_protocol,2022.2.5,59.88981472348976,
Celebs/18_Emma_Stone_0016.jpg,non_target,1,0,1,0,0,54,54,52,,,,,,,,,,,,,305.98860169999534,305.98860169999534,306.4886682999786,,,,,,000589,00,25,M,2023-06-02_16h22.20.784,face_recognition_ERP_protocol,2022.2.5,59.88981472348976,
Celebs/22_Margot_Robbie_0010.jpg,non_target,1,0,1,0,0,55,55,18,,,,,,,,,,,,,306.9894389999681,306.9894389999681,307.4897831999697,,,,,,000589,00,25,M,2023-06-02_16h22.20.784,face_recognition_ERP_protocol,2022.2.5,59.88981472348976,
Celebs/33_Neil_Patrick_Harris_0011.jpg,non_target,1,0,1,0,0,56,56,112,,,,,,,,,,,,,307.98965000000317,307.98965000000317,308.49090869998327,,,,,,000589,00,25,M,2023-06-02_16h22.20.784,face_recognition_ERP_protocol,2022.2.5,59.88981472348976,
Celebs/16_Emma_Stone_0010.jpg,non_target,1,0,1,0,0,57,57,95,,,,,,,,,,,,,308.9917758000083,308.9917758000083,309.4919971000054,,,,,,000589,00,25,M,2023-06-02_16h22.20.784,face_recognition_ERP_protocol,2022.2.5,59.88981472348976,
Celebs/32_Jim_Parsons_0018.jpg,non_target,1,0,1,0,0,58,58,46,,,,,,,,,,,,,309.993060400011,309.993060400011,310.4930688000168,,,,,,000589,00,25,M,2023-06-02_16h22.20.784,face_recognition_ERP_protocol,2022.2.5,59.88981472348976,
Celebs/22_Emma_Watson_0003.jpg,non_target,1,0,1,0,0,59,59,91,,,,,,,,,,,,,310.9941565999761,310.9941565999761,311.49415679997765,,,,,,000589,00,25,M,2023-06-02_16h22.20.784,face_recognition_ERP_protocol,2022.2.5,59.88981472348976,
Celebs/39_Jim_Parsons_0001.jpg,non_target,1,0,1,0,0,60,60,49,,,,,,,,,,,,,311.9950007000007,311.9950007000007,312.49527989997296,,,,,,000589,00,25,M,2023-06-02_16h22.20.784,face_recognition_ERP_protocol,2022.2.5,59.88981472348976,
Celebs/18_Daniel_Radcliffe_0007.jpg,target,1,0,1,0,0,61,61,81,,,,,,,,,,,,,312.99622999998974,312.99622999998974,313.49621469998965,,,,,,000589,00,25,M,2023-06-02_16h22.20.784,face_recognition_ERP_protocol,2022.2.5,59.88981472348976,
Celebs/18_Daniel_Radcliffe_0008.jpg,target,1,0,1,0,0,62,62,28,,,,,,,,,,,,,313.99950540001737,313.99950540001737,314.49733159999596,,,,,,000589,00,25,M,2023-06-02_16h22.20.784,face_recognition_ERP_protocol,2022.2.5,59.88981472348976,
Celebs/22_Scarlett_Johansson_0005.jpg,non_target,1,0,1,0,0,63,63,44,,,,,,,,,,,,,314.9984944000025,314.9984944000025,315.4985410000081,,,,,,000589,00,25,M,2023-06-02_16h22.20.784,face_recognition_ERP_protocol,2022.2.5,59.88981472348976,
Celebs/36_Jim_Parsons_0011.jpg,non_target,1,0,1,0,0,64,64,86,,,,,,,,,,,,,315.999296199996,315.999296199996,316.49967360001756,,,,,,000589,00,25,M,2023-06-02_16h22.20.784,face_recognition_ERP_protocol,2022.2.5,59.88981472348976,
Celebs/36_Neil_Patrick_Harris_0010.jpg,non_target,1,0,1,0,0,65,65,79,,,,,,,,,,,,,317.00160479999613,317.00160479999613,317.50068210001336,,,,,,000589,00,25,M,2023-06-02_16h22.20.784,face_recognition_ERP_protocol,2022.2.5,59.88981472348976,
Celebs/57_Jackie_Chan_0010.jpg,non_target,1,0,1,0,0,66,66,62,,,,,,,,,,,,,318.0026916000061,318.0026916000061,318.5018268999993,,,,,,000589,00,25,M,2023-06-02_16h22.20.784,face_recognition_ERP_protocol,2022.2.5,59.88981472348976,
Celebs/14_Emma_Watson_0013.jpg,non_target,1,0,1,0,0,67,67,20,,,,,,,,,,,,,319.0028358999989,319.0028358999989,319.5028985000099,,,,,,000589,00,25,M,2023-06-02_16h22.20.784,face_recognition_ERP_protocol,2022.2.5,59.88981472348976,
Celebs/23_Daniel_Radcliffe_0019.jpg,target,1,0,1,0,0,68,68,6,,,,,,,,,,,,,320.0038578999811,320.0038578999811,320.48731709999265,,,,,,000589,00,25,M,2023-06-02_16h22.20.784,face_recognition_ERP_protocol,2022.2.5,59.88981472348976,
Celebs/48_Johnny_Depp_0001.jpg,non_target,1,0,1,0,0,69,69,106,,,,,,,,,,,,,320.99069920001784,320.99069920001784,321.4884248999879,,,,,,000589,00,25,M,2023-06-02_16h22.20.784,face_recognition_ERP_protocol,2022.2.5,59.88981472348976,
Celebs/22_Emma_Stone_0013.jpg,non_target,1,0,1,0,0,70,70,1,,,,,,,,,,,,,321.9893662999966,321.9893662999966,322.4895363000105,,,,,,000589,00,25,M,2023-06-02_16h22.20.784,face_recognition_ERP_protocol,2022.2.5,59.88981472348976,
Celebs/17_Margot_Robbie_0006.jpg,non_target,1,0,1,0,0,71,71,17,,,,,,,,,,,,,322.99068390001776,322.99068390001776,323.4906308000209,,,,,,000589,00,25,M,2023-06-02_16h22.20.784,face_recognition_ERP_protocol,2022.2.5,59.88981472348976,
Celebs/44_Will_Smith_0006.jpg,non_target,1,0,1,0,0,72,72,41,,,,,,,,,,,,,323.9916428999859,323.9916428999859,324.4916723999777,,,,,,000589,00,25,M,2023-06-02_16h22.20.784,face_recognition_ERP_protocol,2022.2.5,59.88981472348976,
Celebs/16_Margot_Robbie_0009.jpg,non_target,1,0,1,0,0,73,73,107,,,,,,,,,,,,,324.9926256000181,324.9926256000181,325.4926693000016,,,,,,000589,00,25,M,2023-06-02_16h22.20.784,face_recognition_ERP_protocol,2022.2.5,59.88981472348976,
Celebs/24_Daniel_Radcliffe_0017.jpg,target,1,0,1,0,0,74,74,71,,,,,,,,,,,,,325.9936635000049,325.9936635000049,326.49392320000334,,,,,,000589,00,25,M,2023-06-02_16h22.20.784,face_recognition_ERP_protocol,2022.2.5,59.88981472348976,
Celebs/25_Scarlett_Johansson_0010.jpg,non_target,1,0,1,0,0,75,75,32,,,,,,,,,,,,,326.9951653999742,326.9951653999742,327.4950493000215,,,,,,000589,00,25,M,2023-06-02_16h22.20.784,face_recognition_ERP_protocol,2022.2.5,59.88981472348976,
Celebs/18_Daniel_Radcliffe_0002.jpg,target,1,0,1,0,0,76,76,119,,,,,,,,,,,,,327.99590939999325,327.99590939999325,328.4960916999844,,,,,,000589,00,25,M,2023-06-02_16h22.20.784,face_recognition_ERP_protocol,2022.2.5,59.88981472348976,
Celebs/20_Margot_Robbie_0006.jpg,non_target,1,0,1,0,0,77,77,35,,,,,,,,,,,,,328.9971521999687,328.9971521999687,329.4972252000007,,,,,,000589,00,25,M,2023-06-02_16h22.20.784,face_recognition_ERP_protocol,2022.2.5,59.88981472348976,
Celebs/47_Johnny_Depp_0009.jpg,non_target,1,0,1,0,0,78,78,23,,,,,,,,,,,,,329.99822160002077,329.99822160002077,330.4982966000098,,,,,,000589,00,25,M,2023-06-02_16h22.20.784,face_recognition_ERP_protocol,2022.2.5,59.88981472348976,
Celebs/32_Jim_Parsons_0016.jpg,non_target,1,0,1,0,0,79,79,102,,,,,,,,,,,,,330.99937039997894,330.99937039997894,331.4993725999957,,,,,,000589,00,25,M,2023-06-02_16h22.20.784,face_recognition_ERP_protocol,2022.2.5,59.88981472348976,
Celebs/47_Johnny_Depp_0003.jpg,non_target,1,0,1,0,0,80,80,9,,,,,,,,,,,,,332.0003826000029,332.0003826000029,332.50049639999634,,,,,,000589,00,25,M,2023-06-02_16h22.20.784,face_recognition_ERP_protocol,2022.2.5,59.88981472348976,
Celebs/52_Jackie_Chan_0002.jpg,non_target,1,0,1,0,0,81,81,68,,,,,,,,,,,,,333.0009238999919,333.0009238999919,333.5015518,,,,,,000589,00,25,M,2023-06-02_16h22.20.784,face_recognition_ERP_protocol,2022.2.5,59.88981472348976,
Celebs/21_Scarlett_Johansson_0007.jpg,non_target,1,0,1,0,0,82,82,118,,,,,,,,,,,,,334.00534769997466,334.00534769997466,334.5026458000066,,,,,,000589,00,25,M,2023-06-02_16h22.20.784,face_recognition_ERP_protocol,2022.2.5,59.88981472348976,
Celebs/14_Emma_Watson_0005.jpg,non_target,1,0,1,0,0,83,83,26,,,,,,,,,,,,,335.0036233999999,335.0036233999999,335.5037689000019,,,,,,000589,00,25,M,2023-06-02_16h22.20.784,face_recognition_ERP_protocol,2022.2.5,59.88981472348976,
Celebs/21_Daniel_Radcliffe_0012.jpg,target,1,0,1,0,0,84,84,8,,,,,,,,,,,,,335.98813730000984,335.98813730000984,336.4881834000116,,,,,,000589,00,25,M,2023-06-02_16h22.20.784,face_recognition_ERP_protocol,2022.2.5,59.88981472348976,
Celebs/29_Scarlett_Johansson_0016.jpg,non_target,1,0,1,0,0,85,85,2,,,,,,,,,,,,,336.9889983999892,336.9889983999892,337.4892341999803,,,,,,000589,00,25,M,2023-06-02_16h22.20.784,face_recognition_ERP_protocol,2022.2.5,59.88981472348976,
Celebs/33_Jim_Parsons_0011.jpg,non_target,1,0,1,0,0,86,86,34,,,,,,,,,,,,,337.99043339997297,337.99043339997297,338.4903807999799,,,,,,000589,00,25,M,2023-06-02_16h22.20.784,face_recognition_ERP_protocol,2022.2.5,59.88981472348976,
Celebs/21_Emma_Stone_0003.jpg,non_target,1,0,1,0,0,87,87,25,,,,,,,,,,,,,338.99152629997116,338.99152629997116,339.49143990001176,,,,,,000589,00,25,M,2023-06-02_16h22.20.784,face_recognition_ERP_protocol,2022.2.5,59.88981472348976,
Celebs/36_Neil_Patrick_Harris_0007.jpg,non_target,1,0,1,0,0,88,88,5,,,,,,,,,,,,,339.9924903999781,339.9924903999781,340.4920950999949,,,,,,000589,00,25,M,2023-06-02_16h22.20.784,face_recognition_ERP_protocol,2022.2.5,59.88981472348976,
Celebs/17_Emma_Watson_0006.jpg,non_target,1,0,1,0,0,89,89,90,,,,,,,,,,,,,340.9935737000196,340.9935737000196,341.49346570001217,,,,,,000589,00,25,M,2023-06-02_16h22.20.784,face_recognition_ERP_protocol,2022.2.5,59.88981472348976,
Celebs/48_Johnny_Depp_0003.jpg,non_target,1,0,1,0,0,90,90,55,,,,,,,,,,,,,341.9947684999788,341.9947684999788,342.4948200000217,,,,,,000589,00,25,M,2023-06-02_16h22.20.784,face_recognition_ERP_protocol,2022.2.5,59.88981472348976,
Celebs/16_Emma_Stone_0008.jpg,non_target,1,0,1,0,0,91,91,48,,,,,,,,,,,,,342.99579790001735,342.99579790001735,343.49583279999206,,,,,,000589,00,25,M,2023-06-02_16h22.20.784,face_recognition_ERP_protocol,2022.2.5,59.88981472348976,
Celebs/22_Emma_Watson_0001.jpg,non_target,1,0,1,0,0,92,92,58,,,,,,,,,,,,,343.99703670002054,343.99703670002054,344.4969220000203,,,,,,000589,00,25,M,2023-06-02_16h22.20.784,face_recognition_ERP_protocol,2022.2.5,59.88981472348976,
Celebs/34_Neil_Patrick_Harris_0007.jpg,non_target,1,0,1,0,0,93,93,117,,,,,,,,,,,,,344.99852099997224,344.99852099997224,345.49799709999934,,,,,,000589,00,25,M,2023-06-02_16h22.20.784,face_recognition_ERP_protocol,2022.2.5,59.88981472348976,
Celebs/15_Margot_Robbie_0012.jpg,non_target,1,0,1,0,0,94,94,82,,,,,,,,,,,,,345.9990699000191,345.9990699000191,346.4991774999653,,,,,,000589,00,25,M,2023-06-02_16h22.20.784,face_recognition_ERP_protocol,2022.2.5,59.88981472348976,
Celebs/40_Jim_Parsons_0015.jpg,non_target,1,0,1,0,0,95,95,45,,,,,,,,,,,,,347.000229199999,347.000229199999,347.50020629999926,,,,,,000589,00,25,M,2023-06-02_16h22.20.784,face_recognition_ERP_protocol,2022.2.5,59.88981472348976,
Celebs/32_Jim_Parsons_0010.jpg,non_target,1,0,1,0,0,96,96,98,,,,,,,,,,,,,348.0012570999679,348.0012570999679,348.5013084000093,,,,,,000589,00,25,M,2023-06-02_16h22.20.784,face_recognition_ERP_protocol,2022.2.5,59.88981472348976,
Celebs/17_Margot_Robbie_0014.jpg,non_target,1,0,1,0,0,97,97,114,,,,,,,,,,,,,349.00252320000436,349.00252320000436,349.50237469997955,,,,,,000589,00,25,M,2023-06-02_16h22.20.784,face_recognition_ERP_protocol,2022.2.5,59.88981472348976,
Celebs/23_Emma_Stone_0014.jpg,non_target,1,0,1,0,0,98,98,12,,,,,,,,,,,,,350.0038567999727,350.0038567999727,350.50349480001023,,,,,,000589,00,25,M,2023-06-02_16h22.20.784,face_recognition_ERP_protocol,2022.2.5,59.88981472348976,
Celebs/40_Jim_Parsons_0004.jpg,non_target,1,0,1,0,0,99,99,73,,,,,,,,,,,,,350.98792149999645,350.98792149999645,351.4874131999677,,,,,,000589,00,25,M,2023-06-02_16h22.20.784,face_recognition_ERP_protocol,2022.2.5,59.88981472348976,
Celebs/26_Scarlett_Johansson_0003.jpg,non_target,1,0,1,0,0,100,100,105,,,,,,,,,,,,,351.98895169998286,351.98895169998286,352.49109610001324,,,,,,000589,00,25,M,2023-06-02_16h22.20.784,face_recognition_ERP_protocol,2022.2.5,59.88981472348976,
Celebs/50_Johnny_Depp_0008.jpg,non_target,1,0,1,0,0,101,101,84,,,,,,,,,,,,,352.9897760999738,352.9897760999738,353.49017090001144,,,,,,000589,00,25,M,2023-06-02_16h22.20.784,face_recognition_ERP_protocol,2022.2.5,59.88981472348976,
Celebs/21_Daniel_Radcliffe_0009.jpg,target,1,0,1,0,0,102,102,83,,,,,,,,,,,,,353.99124609999126,353.99124609999126,354.4912079999922,,,,,,000589,00,25,M,2023-06-02_16h22.20.784,face_recognition_ERP_protocol,2022.2.5,59.88981472348976,
Celebs/21_Daniel_Radcliffe_0008.jpg,target,1,0,1,0,0,103,103,16,,,,,,,,,,,,,354.99229139997624,354.99229139997624,355.4923532999819,,,,,,000589,00,25,M,2023-06-02_16h22.20.784,face_recognition_ERP_protocol,2022.2.5,59.88981472348976,
Celebs/14_Emma_Watson_0015.jpg,non_target,1,0,1,0,0,104,104,56,,,,,,,,,,,,,355.99346049997257,355.99346049997257,356.4933623999823,,,,,,000589,00,25,M,2023-06-02_16h22.20.784,face_recognition_ERP_protocol,2022.2.5,59.88981472348976,
Celebs/21_Daniel_Radcliffe_0002.jpg,target,1,0,1,0,0,105,105,60,,,,,,,,,,,,,356.9948926999932,356.9948926999932,357.49449830001686,,,,,,000589,00,25,M,2023-06-02_16h22.20.784,face_recognition_ERP_protocol,2022.2.5,59.88981472348976,
Celebs/20_Scarlett_Johansson_0011.jpg,non_target,1,0,1,0,0,106,106,109,,,,,,,,,,,,,357.9958648000029,357.9958648000029,358.49554899998475,,,,,,000589,00,25,M,2023-06-02_16h22.20.784,face_recognition_ERP_protocol,2022.2.5,59.88981472348976,
Celebs/39_Neil_Patrick_Harris_0001.jpg,non_target,1,0,1,0,0,107,107,4,,,,,,,,,,,,,358.9957330999896,358.9957330999896,359.49665190000087,,,,,,000589,00,25,M,2023-06-02_16h22.20.784,face_recognition_ERP_protocol,2022.2.5,59.88981472348976,
Celebs/39_Jim_Parsons_0010.jpg,non_target,1,0,1,0,0,108,108,0,,,,,,,,,,,,,359.9985415000119,359.9985415000119,360.49773210001877,,,,,,000589,00,25,M,2023-06-02_16h22.20.784,face_recognition_ERP_protocol,2022.2.5,59.88981472348976,
Celebs/43_Will_Smith_0007.jpg,non_target,1,0,1,0,0,109,109,74,,,,,,,,,,,,,360.99875379999867,360.99875379999867,361.4983226999757,,,,,,000589,00,25,M,2023-06-02_16h22.20.784,face_recognition_ERP_protocol,2022.2.5,59.88981472348976,
Celebs/48_Johnny_Depp_0005.jpg,non_target,1,0,1,0,0,110,110,54,,,,,,,,,,,,,361.99931919999653,361.99931919999653,362.4998179000104,,,,,,000589,00,25,M,2023-06-02_16h22.20.784,face_recognition_ERP_protocol,2022.2.5,59.88981472348976,
Celebs/54_Jackie_Chan_0001.jpg,non_target,1,0,1,0,0,111,111,7,,,,,,,,,,,,,363.00094579998404,363.00094579998404,363.50105859996984,,,,,,000589,00,25,M,2023-06-02_16h22.20.784,face_recognition_ERP_protocol,2022.2.5,59.88981472348976,
Celebs/16_Emma_Stone_0014.jpg,non_target,1,0,1,0,0,112,112,40,,,,,,,,,,,,,364.00206009997055,364.00206009997055,364.50227170001017,,,,,,000589,00,25,M,2023-06-02_16h22.20.784,face_recognition_ERP_protocol,2022.2.5,59.88981472348976,
Celebs/39_Jim_Parsons_0004.jpg,non_target,1,0,1,0,0,113,113,88,,,,,,,,,,,,,365.0033873000066,365.0033873000066,365.5029339999892,,,,,,000589,00,25,M,2023-06-02_16h22.20.784,face_recognition_ERP_protocol,2022.2.5,59.88981472348976,
Celebs/57_Jackie_Chan_0008.jpg,non_target,1,0,1,0,0,114,114,72,,,,,,,,,,,,,366.0827647999977,366.0827647999977,366.5516050999868,,,,,,000589,00,25,M,2023-06-02_16h22.20.784,face_recognition_ERP_protocol,2022.2.5,59.88981472348976,
Celebs/22_Emma_Watson_0010.jpg,non_target,1,0,1,0,0,115,115,11,,,,,,,,,,,,,366.9879740999895,366.9879740999895,367.48835619998863,,,,,,000589,00,25,M,2023-06-02_16h22.20.784,face_recognition_ERP_protocol,2022.2.5,59.88981472348976,
Celebs/37_Neil_Patrick_Harris_0014.jpg,non_target,1,0,1,0,0,116,116,37,,,,,,,,,,,,,367.9912396,367.9912396,368.4897929999861,,,,,,000589,00,25,M,2023-06-02_16h22.20.784,face_recognition_ERP_protocol,2022.2.5,59.88981472348976,
Celebs/17_Daniel_Radcliffe_0007.jpg,target,1,0,1,0,0,117,117,19,,,,,,,,,,,,,368.99190379999345,368.99190379999345,369.4910298999748,,,,,,000589,00,25,M,2023-06-02_16h22.20.784,face_recognition_ERP_protocol,2022.2.5,59.88981472348976,
Celebs/45_Johnny_Depp_0003.jpg,non_target,1,0,1,0,0,118,118,108,,,,,,,,,,,,,369.9925740999752,369.9925740999752,370.49205130001064,,,,,,000589,00,25,M,2023-06-02_16h22.20.784,face_recognition_ERP_protocol,2022.2.5,59.88981472348976,
Celebs/50_Jackie_Chan_0012.jpg,non_target,1,0,1,0,0,119,119,43,,,,,,,,,,,,,370.99304059997667,370.99304059997667,371.49324169999454,,,,,,000589,00,25,M,2023-06-02_16h22.20.784,face_recognition_ERP_protocol,2022.2.5,59.88981472348976,
Celebs/35_Neil_Patrick_Harris_0009.jpg,non_target,2,0,2,0,0,0,0,87,,,,,,,,,,,,,382.3939297000179,382.3939297000179,382.8722057999694,371.99383310001576,371.99383310001576,space,10.33539289998589,,000589,00,25,M,2023-06-02_16h22.20.784,face_recognition_ERP_protocol,2022.2.5,59.88981472348976,
Celebs/50_Jackie_Chan_0012.jpg,non_target,2,0,2,0,0,1,1,43,,,,,,,,,,,,,383.3741115999874,383.3741115999874,383.8733124000137,,,,,,000589,00,25,M,2023-06-02_16h22.20.784,face_recognition_ERP_protocol,2022.2.5,59.88981472348976,
Celebs/47_Johnny_Depp_0003.jpg,non_target,2,0,2,0,0,2,2,9,,,,,,,,,,,,,384.3744848999777,384.3744848999777,384.8744405999896,,,,,,000589,00,25,M,2023-06-02_16h22.20.784,face_recognition_ERP_protocol,2022.2.5,59.88981472348976,
Celebs/20_Emma_Stone_0005.jpg,non_target,2,0,2,0,0,3,3,63,,,,,,,,,,,,,385.37552709999727,385.37552709999727,385.8588345000171,,,,,,000589,00,25,M,2023-06-02_16h22.20.784,face_recognition_ERP_protocol,2022.2.5,59.88981472348976,
Celebs/43_Will_Smith_0006.jpg,non_target,2,0,2,0,0,4,4,61,,,,,,,,,,,,,386.3596144000185,386.3596144000185,386.8599426000146,,,,,,000589,00,25,M,2023-06-02_16h22.20.784,face_recognition_ERP_protocol,2022.2.5,59.88981472348976,
Celebs/21_Daniel_Radcliffe_0012.jpg,target,2,0,2,0,0,5,5,8,,,,,,,,,,,,,387.3608248999808,387.3608248999808,387.86107859999174,,,,,,000589,00,25,M,2023-06-02_16h22.20.784,face_recognition_ERP_protocol,2022.2.5,59.88981472348976,
Celebs/48_Johnny_Depp_0005.jpg,non_target,2,0,2,0,0,6,6,54,,,,,,,,,,,,,388.3619227000163,388.3619227000163,388.86214709997876,,,,,,000589,00,25,M,2023-06-02_16h22.20.784,face_recognition_ERP_protocol,2022.2.5,59.88981472348976,
Celebs/36_Neil_Patrick_Harris_0010.jpg,non_target,2,0,2,0,0,7,7,79,,,,,,,,,,,,,389.3632745000068,389.3632745000068,389.86321539996425,,,,,,000589,00,25,M,2023-06-02_16h22.20.784,face_recognition_ERP_protocol,2022.2.5,59.88981472348976,
Celebs/24_Scarlett_Johansson_0011.jpg,non_target,2,0,2,0,0,8,8,100,,,,,,,,,,,,,390.3641743999906,390.3641743999906,390.8643071000115,,,,,,000589,00,25,M,2023-06-02_16h22.20.784,face_recognition_ERP_protocol,2022.2.5,59.88981472348976,
Celebs/21_Emma_Watson_0004.jpg,non_target,2,0,2,0,0,9,9,21,,,,,,,,,,,,,391.3652568999678,391.3652568999678,391.8649325000006,,,,,,000589,00,25,M,2023-06-02_16h22.20.784,face_recognition_ERP_protocol,2022.2.5,59.88981472348976,
Celebs/17_Margot_Robbie_0014.jpg,non_target,2,0,2,0,0,10,10,114,,,,,,,,,,,,,392.36648540000897,392.36648540000897,392.866240000003,,,,,,000589,00,25,M,2023-06-02_16h22.20.784,face_recognition_ERP_protocol,2022.2.5,59.88981472348976,
Celebs/27_Scarlett_Johansson_0012.jpg,non_target,2,0,2,0,0,11,11,78,,,,,,,,,,,,,393.3674547999981,393.3674547999981,393.86785179999424,,,,,,000589,00,25,M,2023-06-02_16h22.20.784,face_recognition_ERP_protocol,2022.2.5,59.88981472348976,
Celebs/26_Scarlett_Johansson_0008.jpg,non_target,2,0,2,0,0,12,12,47,,,,,,,,,,,,,394.3685947000049,394.3685947000049,394.86870449996786,,,,,,000589,00,25,M,2023-06-02_16h22.20.784,face_recognition_ERP_protocol,2022.2.5,59.88981472348976,
Celebs/39_Neil_Patrick_Harris_0001.jpg,non_target,2,0,2,0,0,13,13,4,,,,,,,,,,,,,395.369795000006,395.369795000006,395.86980489996495,,,,,,000589,00,25,M,2023-06-02_16h22.20.784,face_recognition_ERP_protocol,2022.2.5,59.88981472348976,
Celebs/17_Emma_Watson_0006.jpg,non_target,2,0,2,0,0,14,14,90,,,,,,,,,,,,,396.37113789998693,396.37113789998693,396.8708983999677,,,,,,000589,00,25,M,2023-06-02_16h22.20.784,face_recognition_ERP_protocol,2022.2.5,59.88981472348976,
Celebs/43_Will_Smith_0007.jpg,non_target,2,0,2,0,0,15,15,74,,,,,,,,,,,,,397.37194169999566,397.37194169999566,397.8719466999755,,,,,,000589,00,25,M,2023-06-02_16h22.20.784,face_recognition_ERP_protocol,2022.2.5,59.88981472348976,
Celebs/44_Will_Smith_0006.jpg,non_target,2,0,2,0,0,16,16,41,,,,,,,,,,,,,398.3721814000164,398.3721814000164,398.87305240001297,,,,,,000589,00,25,M,2023-06-02_16h22.20.784,face_recognition_ERP_protocol,2022.2.5,59.88981472348976,
Celebs/39_Neil_Patrick_Harris_0010.jpg,non_target,2,0,2,0,0,17,17,94,,,,,,,,,,,,,399.3730167999747,399.3730167999747,399.87419080000836,,,,,,000589,00,25,M,2023-06-02_16h22.20.784,face_recognition_ERP_protocol,2022.2.5,59.88981472348976,
Celebs/23_Daniel_Radcliffe_0010.jpg,target,2,0,2,0,0,18,18,15,,,,,,,,,,,,,400.3752713999711,400.3752713999711,400.8585997999762,,,,,,000589,00,25,M,2023-06-02_16h22.20.784,face_recognition_ERP_protocol,2022.2.5,59.88981472348976,
Celebs/50_Johnny_Depp_0010.jpg,non_target,2,0,2,0,0,19,19,115,,,,,,,,,,,,,401.35950550000416,401.35950550000416,401.8596752000158,,,,,,000589,00,25,M,2023-06-02_16h22.20.784,face_recognition_ERP_protocol,2022.2.5,59.88981472348976,
Celebs/14_Emma_Watson_0005.jpg,non_target,2,0,2,0,0,20,20,26,,,,,,,,,,,,,402.36135520000244,402.36135520000244,402.8607500999933,,,,,,000589,00,25,M,2023-06-02_16h22.20.784,face_recognition_ERP_protocol,2022.2.5,59.88981472348976,
Celebs/32_Jim_Parsons_0016.jpg,non_target,2,0,2,0,0,21,21,102,,,,,,,,,,,,,403.36184729996603,403.36184729996603,403.86189770000055,,,,,,000589,00,25,M,2023-06-02_16h22.20.784,face_recognition_ERP_protocol,2022.2.5,59.88981472348976,
Celebs/29_Scarlett_Johansson_0016.jpg,non_target,2,0,2,0,0,22,22,2,,,,,,,,,,,,,404.3630400999682,404.3630400999682,404.86294010002166,,,,,,000589,00,25,M,2023-06-02_16h22.20.784,face_recognition_ERP_protocol,2022.2.5,59.88981472348976,
Celebs/16_Emma_Stone_0010.jpg,non_target,2,0,2,0,0,23,23,95,,,,,,,,,,,,,405.36395329999505,405.36395329999505,405.8640338999685,,,,,,000589,00,25,M,2023-06-02_16h22.20.784,face_recognition_ERP_protocol,2022.2.5,59.88981472348976,
Celebs/57_Jackie_Chan_0008.jpg,non_target,2,0,2,0,0,24,24,72,,,,,,,,,,,,,406.3650848999969,406.3650848999969,406.864631799981,,,,,,000589,00,25,M,2023-06-02_16h22.20.784,face_recognition_ERP_protocol,2022.2.5,59.88981472348976,
Celebs/50_Jackie_Chan_0014.jpg,non_target,2,0,2,0,0,25,25,38,,,,,,,,,,,,,407.36624090000987,407.36624090000987,407.86625099997036,,,,,,000589,00,25,M,2023-06-02_16h22.20.784,face_recognition_ERP_protocol,2022.2.5,59.88981472348976,
Celebs/21_Daniel_Radcliffe_0009.jpg,target,2,0,2,0,0,26,26,83,,,,,,,,,,,,,408.3671886000084,408.3671886000084,408.8673150999821,,,,,,000589,00,25,M,2023-06-02_16h22.20.784,face_recognition_ERP_protocol,2022.2.5,59.88981472348976,
Celebs/45_Johnny_Depp_0003.jpg,non_target,2,0,2,0,0,27,27,108,,,,,,,,,,,,,409.368287099991,409.368287099991,409.8684348000097,,,,,,000589,00,25,M,2023-06-02_16h22.20.784,face_recognition_ERP_protocol,2022.2.5,59.88981472348976,
Celebs/22_Emma_Watson_0003.jpg,non_target,2,0,2,0,0,28,28,91,,,,,,,,,,,,,410.36947109998437,410.36947109998437,410.8695244999835,,,,,,000589,00,25,M,2023-06-02_16h22.20.784,face_recognition_ERP_protocol,2022.2.5,59.88981472348976,
Celebs/57_Jackie_Chan_0010.jpg,non_target,2,0,2,0,0,29,29,62,,,,,,,,,,,,,411.37052519997815,411.37052519997815,411.8706474999781,,,,,,000589,00,25,M,2023-06-02_16h22.20.784,face_recognition_ERP_protocol,2022.2.5,59.88981472348976,
Celebs/21_Emma_Stone_0003.jpg,non_target,2,0,2,0,0,30,30,25,,,,,,,,,,,,,412.3701684999978,412.3701684999978,412.87176730000647,,,,,,000589,00,25,M,2023-06-02_16h22.20.784,face_recognition_ERP_protocol,2022.2.5,59.88981472348976,
Celebs/26_Scarlett_Johansson_0003.jpg,non_target,2,0,2,0,0,31,31,105,,,,,,,,,,,,,413.3734995999839,413.3734995999839,413.8727741999901,,,,,,000589,00,25,M,2023-06-02_16h22.20.784,face_recognition_ERP_protocol,2022.2.5,59.88981472348976,
Celebs/31_Neil_Patrick_Harris_0008.jpg,non_target,2,0,2,0,0,32,32,99,,,,,,,,,,,,,414.37362989998655,414.37362989998655,414.87388299999293,,,,,,000589,00,25,M,2023-06-02_16h22.20.784,face_recognition_ERP_protocol,2022.2.5,59.88981472348976,
Celebs/14_Emma_Watson_0013.jpg,non_target,2,0,2,0,0,33,33,20,,,,,,,,,,,,,415.37489199999254,415.37489199999254,415.8749898999813,,,,,,000589,00,25,M,2023-06-02_16h22.20.784,face_recognition_ERP_protocol,2022.2.5,59.88981472348976,
Celebs/55_Jackie_Chan_0008.jpg,non_target,2,0,2,0,0,34,34,92,,,,,,,,,,,,,416.3593846000149,416.3593846000149,416.8593926000176,,,,,,000589,00,25,M,2023-06-02_16h22.20.784,face_recognition_ERP_protocol,2022.2.5,59.88981472348976,
Celebs/18_Daniel_Radcliffe_0007.jpg,target,2,0,2,0,0,35,35,81,,,,,,,,,,,,,417.361468099989,417.361468099989,417.86056940001436,,,,,,000589,00,25,M,2023-06-02_16h22.20.784,face_recognition_ERP_protocol,2022.2.5,59.88981472348976,
Celebs/18_Daniel_Radcliffe_0008.jpg,target,2,0,2,0,0,36,36,28,,,,,,,,,,,,,418.3616324000177,418.3616324000177,418.8617893999908,,,,,,000589,00,25,M,2023-06-02_16h22.20.784,face_recognition_ERP_protocol,2022.2.5,59.88981472348976,
Celebs/47_Johnny_Depp_0004.jpg,non_target,2,0,2,0,0,37,37,76,,,,,,,,,,,,,419.3626923999982,419.3626923999982,419.8627194999717,,,,,,000589,00,25,M,2023-06-02_16h22.20.784,face_recognition_ERP_protocol,2022.2.5,59.88981472348976,
Celebs/15_Margot_Robbie_0012.jpg,non_target,2,0,2,0,0,38,38,82,,,,,,,,,,,,,420.36405600002035,420.36405600002035,420.86380629998166,,,,,,000589,00,25,M,2023-06-02_16h22.20.784,face_recognition_ERP_protocol,2022.2.5,59.88981472348976,
Celebs/23_Daniel_Radcliffe_0019.jpg,target,2,0,2,0,0,39,39,6,,,,,,,,,,,,,421.36643599998206,421.36643599998206,421.8645206000074,,,,,,000589,00,25,M,2023-06-02_16h22.20.784,face_recognition_ERP_protocol,2022.2.5,59.88981472348976,
Celebs/21_Scarlett_Johansson_0007.jpg,non_target,2,0,2,0,0,40,40,118,,,,,,,,,,,,,422.36633230000734,422.36633230000734,422.86576640000567,,,,,,000589,00,25,M,2023-06-02_16h22.20.784,face_recognition_ERP_protocol,2022.2.5,59.88981472348976,
Celebs/29_Scarlett_Johansson_0010.jpg,non_target,2,0,2,0,0,41,41,85,,,,,,,,,,,,,423.3671949999989,423.3671949999989,423.86705050000455,,,,,,000589,00,25,M,2023-06-02_16h22.20.784,face_recognition_ERP_protocol,2022.2.5,59.88981472348976,
Celebs/43_Will_Smith_0010.jpg,non_target,2,0,2,0,0,42,42,22,,,,,,,,,,,,,424.3683905999642,424.3683905999642,424.868183100014,,,,,,000589,00,25,M,2023-06-02_16h22.20.784,face_recognition_ERP_protocol,2022.2.5,59.88981472348976,
Celebs/18_Emma_Watson_0004.jpg,non_target,2,0,2,0,0,43,43,75,,,,,,,,,,,,,425.36942040000577,425.36942040000577,425.8692689000163,,,,,,000589,00,25,M,2023-06-02_16h22.20.784,face_recognition_ERP_protocol,2022.2.5,59.88981472348976,
Celebs/14_Emma_Watson_0015.jpg,non_target,2,0,2,0,0,44,44,56,,,,,,,,,,,,,426.37229689996457,426.37229689996457,426.87047500000335,,,,,,000589,00,25,M,2023-06-02_16h22.20.784,face_recognition_ERP_protocol,2022.2.5,59.88981472348976,
Celebs/37_Neil_Patrick_Harris_0010.jpg,non_target,2,0,2,0,0,45,45,93,,,,,,,,,,,,,427.37176269997144,427.37176269997144,427.8714271999779,,,,,,000589,00,25,M,2023-06-02_16h22.20.784,face_recognition_ERP_protocol,2022.2.5,59.88981472348976,
Celebs/37_Neil_Patrick_Harris_0014.jpg,non_target,2,0,2,0,0,46,46,37,,,,,,,,,,,,,428.3728977999999,428.3728977999999,428.87253940000664,,,,,,000589,00,25,M,2023-06-02_16h22.20.784,face_recognition_ERP_protocol,2022.2.5,59.88981472348976,
Celebs/55_Jackie_Chan_0003.jpg,non_target,2,0,2,0,0,47,47,29,,,,,,,,,,,,,429.37338489998365,429.37338489998365,429.8736471000011,,,,,,000589,00,25,M,2023-06-02_16h22.20.784,face_recognition_ERP_protocol,2022.2.5,59.88981472348976,
Celebs/28_Scarlett_Johansson_0005.jpg,non_target,2,0,2,0,0,48,48,50,,,,,,,,,,,,,430.3750737999799,430.3750737999799,430.8748041000217,,,,,,000589,00,25,M,2023-06-02_16h22.20.784,face_recognition_ERP_protocol,2022.2.5,59.88981472348976,
Celebs/44_Will_Smith_0007.jpg,non_target,2,0,2,0,0,49,49,65,,,,,,,,,,,,,431.35820339998463,431.35820339998463,431.8591546000098,,,,,,000589,00,25,M,2023-06-02_16h22.20.784,face_recognition_ERP_protocol,2022.2.5,59.88981472348976,
Celebs/24_Emma_Stone_0015.jpg,non_target,2,0,2,0,0,50,50,57,,,,,,,,,,,,,432.3600279999664,432.3600279999664,432.86023689998547,,,,,,000589,00,25,M,2023-06-02_16h22.20.784,face_recognition_ERP_protocol,2022.2.5,59.88981472348976,
Celebs/33_Neil_Patrick_Harris_0011.jpg,non_target,2,0,2,0,0,51,51,112,,,,,,,,,,,,,433.36120169999776,433.36120169999776,433.86139480001293,,,,,,000589,00,25,M,2023-06-02_16h22.20.784,face_recognition_ERP_protocol,2022.2.5,59.88981472348976,
Celebs/47_Johnny_Depp_0009.jpg,non_target,2,0,2,0,0,52,52,23,,,,,,,,,,,,,434.3625111000147,434.3625111000147,434.8625052999705,,,,,,000589,00,25,M,2023-06-02_16h22.20.784,face_recognition_ERP_protocol,2022.2.5,59.88981472348976,
Celebs/16_Emma_Stone_0008.jpg,non_target,2,0,2,0,0,53,53,48,,,,,,,,,,,,,435.36366329999873,435.36366329999873,435.86359859997174,,,,,,000589,00,25,M,2023-06-02_16h22.20.784,face_recognition_ERP_protocol,2022.2.5,59.88981472348976,
Celebs/16_Emma_Stone_0012.jpg,non_target,2,0,2,0,0,54,54,70,,,,,,,,,,,,,436.36481300002197,436.36481300002197,436.8646307999734,,,,,,000589,00,25,M,2023-06-02_16h22.20.784,face_recognition_ERP_protocol,2022.2.5,59.88981472348976,
Celebs/20_Scarlett_Johansson_0011.jpg,non_target,2,0,2,0,0,55,55,109,,,,,,,,,,,,,437.3655459000147,437.3655459000147,437.8659370999667,,,,,,000589,00,25,M,2023-06-02_16h22.20.784,face_recognition_ERP_protocol,2022.2.5,59.88981472348976,
Celebs/17_Margot_Robbie_0006.jpg,non_target,2,0,2,0,0,56,56,17,,,,,,,,,,,,,438.36687169998186,438.36687169998186,438.8668053000001,,,,,,000589,00,25,M,2023-06-02_16h22.20.784,face_recognition_ERP_protocol,2022.2.5,59.88981472348976,
Celebs/18_Emma_Stone_0016.jpg,non_target,2,0,2,0,0,57,57,52,,,,,,,,,,,,,439.36775530001614,439.36775530001614,439.8679134999984,,,,,,000589,00,25,M,2023-06-02_16h22.20.784,face_recognition_ERP_protocol,2022.2.5,59.88981472348976,
Celebs/54_Jackie_Chan_0001.jpg,non_target,2,0,2,0,0,58,58,7,,,,,,,,,,,,,440.368736799981,440.368736799981,440.86873170000035,,,,,,000589,00,25,M,2023-06-02_16h22.20.784,face_recognition_ERP_protocol,2022.2.5,59.88981472348976,
Celebs/14_Emma_Watson_0004.jpg,non_target,2,0,2,0,0,59,59,14,,,,,,,,,,,,,441.36999629996717,441.36999629996717,441.8700545000029,,,,,,000589,00,25,M,2023-06-02_16h22.20.784,face_recognition_ERP_protocol,2022.2.5,59.88981472348976,
Celebs/25_Scarlett_Johansson_0010.jpg,non_target,2,0,2,0,0,60,60,32,,,,,,,,,,,,,442.3712332000141,442.3712332000141,442.8711731999647,,,,,,000589,00,25,M,2023-06-02_16h22.20.784,face_recognition_ERP_protocol,2022.2.5,59.88981472348976,
Celebs/34_Neil_Patrick_Harris_0004.jpg,non_target,2,0,2,0,0,61,61,104,,,,,,,,,,,,,443.37212050001835,443.37212050001835,443.8723052999703,,,,,,000589,00,25,M,2023-06-02_16h22.20.784,face_recognition_ERP_protocol,2022.2.5,59.88981472348976,
Celebs/21_Daniel_Radcliffe_0002.jpg,target,2,0,2,0,0,62,62,60,,,,,,,,,,,,,444.3729907000088,444.3729907000088,444.87340869999025,,,,,,000589,00,25,M,2023-06-02_16h22.20.784,face_recognition_ERP_protocol,2022.2.5,59.88981472348976,
Celebs/50_Johnny_Depp_0018.jpg,non_target,2,0,2,0,0,63,63,24,,,,,,,,,,,,,445.37448990001576,445.37448990001576,445.87449849996483,,,,,,000589,00,25,M,2023-06-02_16h22.20.784,face_recognition_ERP_protocol,2022.2.5,59.88981472348976,
Celebs/17_Daniel_Radcliffe_0007.jpg,target,2,0,2,0,0,64,64,19,,,,,,,,,,,,,446.3587674999726,446.3587674999726,446.85887140000705,,,,,,000589,00,25,M,2023-06-02_16h22.20.784,face_recognition_ERP_protocol,2022.2.5,59.88981472348976,
Celebs/22_Emma_Watson_0010.jpg,non_target,2,0,2,0,0,65,65,11,,,,,,,,,,,,,447.3587721000076,447.3587721000076,447.8599957000115,,,,,,000589,00,25,M,2023-06-02_16h22.20.784,face_recognition_ERP_protocol,2022.2.5,59.88981472348976,
Celebs/14_Emma_Watson_0008.jpg,non_target,2,0,2,0,0,66,66,36,,,,,,,,,,,,,448.36023669998394,448.36023669998394,448.86112539999885,,,,,,000589,00,25,M,2023-06-02_16h22.20.784,face_recognition_ERP_protocol,2022.2.5,59.88981472348976,
Celebs/33_Jim_Parsons_0011.jpg,non_target,2,0,2,0,0,67,67,34,,,,,,,,,,,,,449.3620711999829,449.3620711999829,449.86216499999864,,,,,,000589,00,25,M,2023-06-02_16h22.20.784,face_recognition_ERP_protocol,2022.2.5,59.88981472348976,
Celebs/38_Jim_Parsons_0003.jpg,non_target,2,0,2,0,0,68,68,53,,,,,,,,,,,,,450.3631310000201,450.3631310000201,450.8632566999877,,,,,,000589,00,25,M,2023-06-02_16h22.20.784,face_recognition_ERP_protocol,2022.2.5,59.88981472348976,
Celebs/50_Johnny_Depp_0008.jpg,non_target,2,0,2,0,0,69,69,84,,,,,,,,,,,,,451.364186199964,451.364186199964,451.86434679996455,,,,,,000589,00,25,M,2023-06-02_16h22.20.784,face_recognition_ERP_protocol,2022.2.5,59.88981472348976,
Celebs/39_Jim_Parsons_0004.jpg,non_target,2,0,2,0,0,70,70,88,,,,,,,,,,,,,452.3653585999855,452.3653585999855,452.8654816999915,,,,,,000589,00,25,M,2023-06-02_16h22.20.784,face_recognition_ERP_protocol,2022.2.5,59.88981472348976,
Celebs/21_Margot_Robbie_0003.jpg,non_target,2,0,2,0,0,71,71,27,,,,,,,,,,,,,453.3664405000163,453.3664405000163,453.86653689999366,,,,,,000589,00,25,M,2023-06-02_16h22.20.784,face_recognition_ERP_protocol,2022.2.5,59.88981472348976,
Celebs/21_Emma_Stone_0002.jpg,non_target,2,0,2,0,0,72,72,103,,,,,,,,,,,,,454.36755759996595,454.36755759996595,454.8674501000205,,,,,,000589,00,25,M,2023-06-02_16h22.20.784,face_recognition_ERP_protocol,2022.2.5,59.88981472348976,
Celebs/54_Jackie_Chan_0014.jpg,non_target,2,0,2,0,0,73,73,111,,,,,,,,,,,,,455.3686515999725,455.3686515999725,455.8687439999776,,,,,,000589,00,25,M,2023-06-02_16h22.20.784,face_recognition_ERP_protocol,2022.2.5,59.88981472348976,
Celebs/22_Emma_Stone_0013.jpg,non_target,2,0,2,0,0,74,74,1,,,,,,,,,,,,,456.37000719999196,456.37000719999196,456.86966909997864,,,,,,000589,00,25,M,2023-06-02_16h22.20.784,face_recognition_ERP_protocol,2022.2.5,59.88981472348976,
Celebs/39_Jim_Parsons_0008.jpg,non_target,2,0,2,0,0,75,75,89,,,,,,,,,,,,,457.3710450999788,457.3710450999788,457.8706133000087,,,,,,000589,00,25,M,2023-06-02_16h22.20.784,face_recognition_ERP_protocol,2022.2.5,59.88981472348976,
Celebs/40_Will_Smith_0012.jpg,non_target,2,0,2,0,0,76,76,110,,,,,,,,,,,,,458.3718911000178,458.3718911000178,458.8720586000127,,,,,,000589,00,25,M,2023-06-02_16h22.20.784,face_recognition_ERP_protocol,2022.2.5,59.88981472348976,
Celebs/18_Daniel_Radcliffe_0002.jpg,target,2,0,2,0,0,77,77,119,,,,,,,,,,,,,459.3730914000189,459.3730914000189,459.87311659997795,,,,,,000589,00,25,M,2023-06-02_16h22.20.784,face_recognition_ERP_protocol,2022.2.5,59.88981472348976,
Celebs/24_Daniel_Radcliffe_0017.jpg,target,2,0,2,0,0,78,78,71,,,,,,,,,,,,,460.37434119998943,460.37434119998943,460.8742178999819,,,,,,000589,00,25,M,2023-06-02_16h22.20.784,face_recognition_ERP_protocol,2022.2.5,59.88981472348976,
Celebs/34_Neil_Patrick_Harris_0007.jpg,non_target,2,0,2,0,0,79,79,117,,,,,,,,,,,,,461.3753927000216,461.3753927000216,461.858627300011,,,,,,000589,00,25,M,2023-06-02_16h22.20.784,face_recognition_ERP_protocol,2022.2.5,59.88981472348976,
Celebs/50_Johnny_Depp_0004.jpg,non_target,2,0,2,0,0,80,80,39,,,,,,,,,,,,,462.3600595999742,462.3600595999742,462.85975160001544,,,,,,000589,00,25,M,2023-06-02_16h22.20.784,face_recognition_ERP_protocol,2022.2.5,59.88981472348976,
Celebs/22_Margot_Robbie_0010.jpg,non_target,2,0,2,0,0,81,81,18,,,,,,,,,,,,,463.3607850999688,463.3607850999688,463.86098719999427,,,,,,000589,00,25,M,2023-06-02_16h22.20.784,face_recognition_ERP_protocol,2022.2.5,59.88981472348976,
Celebs/20_Emma_Watson_0007.jpg,non_target,2,0,2,0,0,82,82,96,,,,,,,,,,,,,464.36194969998905,464.36194969998905,464.8614064999856,,,,,,000589,00,25,M,2023-06-02_16h22.20.784,face_recognition_ERP_protocol,2022.2.5,59.88981472348976,
Celebs/15_Margot_Robbie_0005.jpg,non_target,2,0,2,0,0,83,83,80,,,,,,,,,,,,,465.3628632000182,465.3628632000182,465.8630102999741,,,,,,000589,00,25,M,2023-06-02_16h22.20.784,face_recognition_ERP_protocol,2022.2.5,59.88981472348976,
Celebs/20_Margot_Robbie_0004.jpg,non_target,2,0,2,0,0,84,84,116,,,,,,,,,,,,,466.3627260000212,466.3627260000212,466.8641292999964,,,,,,000589,00,25,M,2023-06-02_16h22.20.784,face_recognition_ERP_protocol,2022.2.5,59.88981472348976,
Celebs/19_Emma_Stone_0006.jpg,non_target,2,0,2,0,0,85,85,66,,,,,,,,,,,,,467.36422729998594,467.36422729998594,467.86528729996644,,,,,,000589,00,25,M,2023-06-02_16h22.20.784,face_recognition_ERP_protocol,2022.2.5,59.88981472348976,
Celebs/39_Jim_Parsons_0001.jpg,non_target,2,0,2,0,0,86,86,49,,,,,,,,,,,,,468.36631979997037,468.36631979997037,468.8662981999805,,,,,,000589,00,25,M,2023-06-02_16h22.20.784,face_recognition_ERP_protocol,2022.2.5,59.88981472348976,
Celebs/22_Emma_Watson_0001.jpg,non_target,2,0,2,0,0,87,87,58,,,,,,,,,,,,,469.36738919996424,469.36738919996424,469.86738890002016,,,,,,000589,00,25,M,2023-06-02_16h22.20.784,face_recognition_ERP_protocol,2022.2.5,59.88981472348976,
Celebs/51_Jackie_Chan_0006.jpg,non_target,2,0,2,0,0,88,88,97,,,,,,,,,,,,,470.36854260001564,470.36854260001564,470.8684609999764,,,,,,000589,00,25,M,2023-06-02_16h22.20.784,face_recognition_ERP_protocol,2022.2.5,59.88981472348976,
Celebs/24_Scarlett_Johansson_0001.jpg,non_target,2,0,2,0,0,89,89,10,,,,,,,,,,,,,471.3696005999809,471.3696005999809,471.8692054999992,,,,,,000589,00,25,M,2023-06-02_16h22.20.784,face_recognition_ERP_protocol,2022.2.5,59.88981472348976,
Celebs/40_Jim_Parsons_0004.jpg,non_target,2,0,2,0,0,90,90,73,,,,,,,,,,,,,472.3726091000135,472.3726091000135,472.8702325000195,,,,,,000589,00,25,M,2023-06-02_16h22.20.784,face_recognition_ERP_protocol,2022.2.5,59.88981472348976,
Celebs/19_Margot_Robbie_0004.jpg,non_target,2,0,2,0,0,91,91,42,,,,,,,,,,,,,473.37184470001375,473.37184470001375,473.8717180999811,,,,,,000589,00,25,M,2023-06-02_16h22.20.784,face_recognition_ERP_protocol,2022.2.5,59.88981472348976,
Celebs/16_Margot_Robbie_0009.jpg,non_target,2,0,2,0,0,92,92,107,,,,,,,,,,,,,474.37290959997335,474.37290959997335,474.87283950002166,,,,,,000589,00,25,M,2023-06-02_16h22.20.784,face_recognition_ERP_protocol,2022.2.5,59.88981472348976,
Celebs/39_Jim_Parsons_0010.jpg,non_target,2,0,2,0,0,93,93,0,,,,,,,,,,,,,475.37399270001333,475.37399270001333,475.8740199999884,,,,,,000589,00,25,M,2023-06-02_16h22.20.784,face_recognition_ERP_protocol,2022.2.5,59.88981472348976,
Celebs/21_Daniel_Radcliffe_0008.jpg,target,2,0,2,0,0,94,94,16,,,,,,,,,,,,,476.3750201999792,476.3750201999792,476.85838320001494,,,,,,000589,00,25,M,2023-06-02_16h22.20.784,face_recognition_ERP_protocol,2022.2.5,59.88981472348976,
Celebs/48_Johnny_Depp_0001.jpg,non_target,2,0,2,0,0,95,95,106,,,,,,,,,,,,,477.35943149996456,477.35943149996456,477.85947809997015,,,,,,000589,00,25,M,2023-06-02_16h22.20.784,face_recognition_ERP_protocol,2022.2.5,59.88981472348976,
Celebs/36_Neil_Patrick_Harris_0007.jpg,non_target,2,0,2,0,0,96,96,5,,,,,,,,,,,,,478.36048610002035,478.36048610002035,478.8607079000212,,,,,,000589,00,25,M,2023-06-02_16h22.20.784,face_recognition_ERP_protocol,2022.2.5,59.88981472348976,
Celebs/32_Jim_Parsons_0018.jpg,non_target,2,0,2,0,0,97,97,46,,,,,,,,,,,,,479.36178879998624,479.36178879998624,479.8617583999876,,,,,,000589,00,25,M,2023-06-02_16h22.20.784,face_recognition_ERP_protocol,2022.2.5,59.88981472348976,
Celebs/38_Will_Smith_0013.jpg,non_target,2,0,2,0,0,98,98,13,,,,,,,,,,,,,480.3625794000109,480.3625794000109,480.86277479998535,,,,,,000589,00,25,M,2023-06-02_16h22.20.784,face_recognition_ERP_protocol,2022.2.5,59.88981472348976,
Celebs/55_Jackie_Chan_0015.jpg,non_target,2,0,2,0,0,99,99,30,,,,,,,,,,,,,481.36481539998204,481.36481539998204,481.8638471000013,,,,,,000589,00,25,M,2023-06-02_16h22.20.784,face_recognition_ERP_protocol,2022.2.5,59.88981472348976,
Celebs/49_Johnny_Depp_0013.jpg,non_target,2,0,2,0,0,100,100,33,,,,,,,,,,,,,482.36482989997603,482.36482989997603,482.86499209998874,,,,,,000589,00,25,M,2023-06-02_16h22.20.784,face_recognition_ERP_protocol,2022.2.5,59.88981472348976,
Celebs/32_Jim_Parsons_0010.jpg,non_target,2,0,2,0,0,101,101,98,,,,,,,,,,,,,483.36583369999425,483.36583369999425,483.8660620999872,,,,,,000589,00,25,M,2023-06-02_16h22.20.784,face_recognition_ERP_protocol,2022.2.5,59.88981472348976,
Celebs/37_Will_Smith_0015.jpg,non_target,2,0,2,0,0,102,102,113,,,,,,,,,,,,,484.3667604000075,484.3667604000075,484.86712319997605,,,,,,000589,00,25,M,2023-06-02_16h22.20.784,face_recognition_ERP_protocol,2022.2.5,59.88981472348976,
Celebs/22_Scarlett_Johansson_0005.jpg,non_target,2,0,2,0,0,103,103,44,,,,,,,,,,,,,485.36845820001327,485.36845820001327,485.86825880000833,,,,,,000589,00,25,M,2023-06-02_16h22.20.784,face_recognition_ERP_protocol,2022.2.5,59.88981472348976,
Celebs/40_Jim_Parsons_0015.jpg,non_target,2,0,2,0,0,104,104,45,,,,,,,,,,,,,486.36942920001457,486.36942920001457,486.8691576999845,,,,,,000589,00,25,M,2023-06-02_16h22.20.784,face_recognition_ERP_protocol,2022.2.5,59.88981472348976,
Celebs/58_Jackie_Chan_0005.jpg,non_target,2,0,2,0,0,105,105,3,,,,,,,,,,,,,487.3704654999892,487.3704654999892,487.8699866000097,,,,,,000589,00,25,M,2023-06-02_16h22.20.784,face_recognition_ERP_protocol,2022.2.5,59.88981472348976,
Celebs/45_Will_Smith_0010.jpg,non_target,2,0,2,0,0,106,106,69,,,,,,,,,,,,,488.3715663999901,488.3715663999901,488.8715094999643,,,,,,000589,00,25,M,2023-06-02_16h22.20.784,face_recognition_ERP_protocol,2022.2.5,59.88981472348976,
Celebs/19_Margot_Robbie_0001.jpg,non_target,2,0,2,0,0,107,107,51,,,,,,,,,,,,,489.3726309000049,489.3726309000049,489.8725800999673,,,,,,000589,00,25,M,2023-06-02_16h22.20.784,face_recognition_ERP_protocol,2022.2.5,59.88981472348976,
Celebs/45_Will_Smith_0014.jpg,non_target,2,0,2,0,0,108,108,59,,,,,,,,,,,,,490.3736235999968,490.3736235999968,490.87370699999155,,,,,,000589,00,25,M,2023-06-02_16h22.20.784,face_recognition_ERP_protocol,2022.2.5,59.88981472348976,
Celebs/52_Jackie_Chan_0002.jpg,non_target,2,0,2,0,0,109,109,68,,,,,,,,,,,,,491.37470519996714,491.37470519996714,491.8748384999926,,,,,,000589,00,25,M,2023-06-02_16h22.20.784,face_recognition_ERP_protocol,2022.2.5,59.88981472348976,
Celebs/17_Margot_Robbie_0012.jpg,non_target,2,0,2,0,0,110,110,67,,,,,,,,,,,,,492.359158199979,492.359158199979,492.8592224000022,,,,,,000589,00,25,M,2023-06-02_16h22.20.784,face_recognition_ERP_protocol,2022.2.5,59.88981472348976,
Celebs/48_Johnny_Depp_0003.jpg,non_target,2,0,2,0,0,111,111,55,,,,,,,,,,,,,493.3602116999682,493.3602116999682,493.86036469996907,,,,,,000589,00,25,M,2023-06-02_16h22.20.784,face_recognition_ERP_protocol,2022.2.5,59.88981472348976,
Celebs/44_Will_Smith_0015.jpg,non_target,2,0,2,0,0,112,112,101,,,,,,,,,,,,,494.3614036999643,494.3614036999643,494.8613949000137,,,,,,000589,00,25,M,2023-06-02_16h22.20.784,face_recognition_ERP_protocol,2022.2.5,59.88981472348976,
Celebs/42_Will_Smith_0012.jpg,non_target,2,0,2,0,0,113,113,64,,,,,,,,,,,,,495.36229000001913,495.36229000001913,495.86247799999546,,,,,,000589,00,25,M,2023-06-02_16h22.20.784,face_recognition_ERP_protocol,2022.2.5,59.88981472348976,
Celebs/23_Emma_Stone_0014.jpg,non_target,2,0,2,0,0,114,114,12,,,,,,,,,,,,,496.36245159996906,496.36245159996906,496.8635678999708,,,,,,000589,00,25,M,2023-06-02_16h22.20.784,face_recognition_ERP_protocol,2022.2.5,59.88981472348976,
Celebs/38_Neil_Patrick_Harris_0006.jpg,non_target,2,0,2,0,0,115,115,31,,,,,,,,,,,,,497.36461250000866,497.36461250000866,497.8646898000152,,,,,,000589,00,25,M,2023-06-02_16h22.20.784,face_recognition_ERP_protocol,2022.2.5,59.88981472348976,
Celebs/20_Margot_Robbie_0006.jpg,non_target,2,0,2,0,0,116,116,35,,,,,,,,,,,,,498.3659616999794,498.3659616999794,498.86579339997843,,,,,,000589,00,25,M,2023-06-02_16h22.20.784,face_recognition_ERP_protocol,2022.2.5,59.88981472348976,
Celebs/16_Emma_Stone_0014.jpg,non_target,2,0,2,0,0,117,117,40,,,,,,,,,,,,,499.3666205999907,499.3666205999907,499.8668622999685,,,,,,000589,00,25,M,2023-06-02_16h22.20.784,face_recognition_ERP_protocol,2022.2.5,59.88981472348976,
Celebs/36_Jim_Parsons_0011.jpg,non_target,2,0,2,0,0,118,118,86,,,,,,,,,,,,,500.3679356999928,500.3679356999928,500.8680942999781,,,,,,000589,00,25,M,2023-06-02_16h22.20.784,face_recognition_ERP_protocol,2022.2.5,59.88981472348976,
Celebs/23_Daniel_Radcliffe_0002.jpg,target,2,0,2,0,0,119,119,77,,,,,,,,,,,,,501.3688197999727,501.3688197999727,501.8690475000185,,,,,,000589,00,25,M,2023-06-02_16h22.20.784,face_recognition_ERP_protocol,2022.2.5,59.88981472348976,
Celebs/39_Neil_Patrick_Harris_0001.jpg,non_target,3,0,3,0,0,0,0,4,,,,,,,,,,,,,509.96721199998865,509.96721199998865,510.4451778999646,502.3697703999933,502.3697703999933,space,7.528983400028665,,000589,00,25,M,2023-06-02_16h22.20.784,face_recognition_ERP_protocol,2022.2.5,59.88981472348976,
Celebs/34_Neil_Patrick_Harris_0004.jpg,non_target,3,0,3,0,0,1,1,104,,,,,,,,,,,,,510.94618819997413,510.94618819997413,511.44624219997786,,,,,,000589,00,25,M,2023-06-02_16h22.20.784,face_recognition_ERP_protocol,2022.2.5,59.88981472348976,
Celebs/47_Johnny_Depp_0003.jpg,non_target,3,0,3,0,0,2,2,9,,,,,,,,,,,,,511.94721710000886,511.94721710000886,512.4473227999988,,,,,,000589,00,25,M,2023-06-02_16h22.20.784,face_recognition_ERP_protocol,2022.2.5,59.88981472348976,
Celebs/17_Daniel_Radcliffe_0007.jpg,target,3,0,3,0,0,3,3,19,,,,,,,,,,,,,512.9321049000137,512.9321049000137,513.4317467000219,,,,,,000589,00,25,M,2023-06-02_16h22.20.784,face_recognition_ERP_protocol,2022.2.5,59.88981472348976,
Celebs/44_Will_Smith_0015.jpg,non_target,3,0,3,0,0,4,4,101,,,,,,,,,,,,,513.9326130999834,513.9326130999834,514.4327750999946,,,,,,000589,00,25,M,2023-06-02_16h22.20.784,face_recognition_ERP_protocol,2022.2.5,59.88981472348976,
Celebs/18_Daniel_Radcliffe_0007.jpg,target,3,0,3,0,0,5,5,81,,,,,,,,,,,,,514.9337183000171,514.9337183000171,515.433919699979,,,,,,000589,00,25,M,2023-06-02_16h22.20.784,face_recognition_ERP_protocol,2022.2.5,59.88981472348976,
Celebs/16_Emma_Stone_0014.jpg,non_target,3,0,3,0,0,6,6,40,,,,,,,,,,,,,515.935163200018,515.935163200018,516.4350521999877,,,,,,000589,00,25,M,2023-06-02_16h22.20.784,face_recognition_ERP_protocol,2022.2.5,59.88981472348976,
Celebs/37_Neil_Patrick_Harris_0010.jpg,non_target,3,0,3,0,0,7,7,93,,,,,,,,,,,,,516.9361123999697,516.9361123999697,517.4356307999697,,,,,,000589,00,25,M,2023-06-02_16h22.20.784,face_recognition_ERP_protocol,2022.2.5,59.88981472348976,
Celebs/22_Emma_Watson_0010.jpg,non_target,3,0,3,0,0,8,8,11,,,,,,,,,,,,,517.9371119000134,517.9371119000134,518.4372219999786,,,,,,000589,00,25,M,2023-06-02_16h22.20.784,face_recognition_ERP_protocol,2022.2.5,59.88981472348976,
Celebs/21_Margot_Robbie_0003.jpg,non_target,3,0,3,0,0,9,9,27,,,,,,,,,,,,,518.9380795999896,518.9380795999896,519.4383341000066,,,,,,000589,00,25,M,2023-06-02_16h22.20.784,face_recognition_ERP_protocol,2022.2.5,59.88981472348976,
Celebs/43_Will_Smith_0006.jpg,non_target,3,0,3,0,0,10,10,61,,,,,,,,,,,,,519.9393286000122,519.9393286000122,520.4395067999722,,,,,,000589,00,25,M,2023-06-02_16h22.20.784,face_recognition_ERP_protocol,2022.2.5,59.88981472348976,
Celebs/21_Emma_Stone_0002.jpg,non_target,3,0,3,0,0,11,11,103,,,,,,,,,,,,,520.9411400000099,520.9411400000099,521.4405864999862,,,,,,000589,00,25,M,2023-06-02_16h22.20.784,face_recognition_ERP_protocol,2022.2.5,59.88981472348976,
Celebs/57_Jackie_Chan_0010.jpg,non_target,3,0,3,0,0,12,12,62,,,,,,,,,,,,,521.9422692999942,521.9422692999942,522.4416992000188,,,,,,000589,00,25,M,2023-06-02_16h22.20.784,face_recognition_ERP_protocol,2022.2.5,59.88981472348976,
Celebs/19_Margot_Robbie_0004.jpg,non_target,3,0,3,0,0,13,13,42,,,,,,,,,,,,,522.9430211000144,522.9430211000144,523.4427129999967,,,,,,000589,00,25,M,2023-06-02_16h22.20.784,face_recognition_ERP_protocol,2022.2.5,59.88981472348976,
Celebs/40_Will_Smith_0012.jpg,non_target,3,0,3,0,0,14,14,110,,,,,,,,,,,,,523.9435496999649,523.9435496999649,524.4438385000103,,,,,,000589,00,25,M,2023-06-02_16h22.20.784,face_recognition_ERP_protocol,2022.2.5,59.88981472348976,
Celebs/48_Johnny_Depp_0001.jpg,non_target,3,0,3,0,0,15,15,106,,,,,,,,,,,,,524.9448065999895,524.9448065999895,525.4448926000041,,,,,,000589,00,25,M,2023-06-02_16h22.20.784,face_recognition_ERP_protocol,2022.2.5,59.88981472348976,
Celebs/48_Johnny_Depp_0003.jpg,non_target,3,0,3,0,0,16,16,55,,,,,,,,,,,,,525.945747299993,525.945747299993,526.4459698999999,,,,,,000589,00,25,M,2023-06-02_16h22.20.784,face_recognition_ERP_protocol,2022.2.5,59.88981472348976,
Celebs/27_Scarlett_Johansson_0012.jpg,non_target,3,0,3,0,0,17,17,78,,,,,,,,,,,,,526.9470991999842,526.9470991999842,527.4470696999924,,,,,,000589,00,25,M,2023-06-02_16h22.20.784,face_recognition_ERP_protocol,2022.2.5,59.88981472348976,
Celebs/36_Jim_Parsons_0011.jpg,non_target,3,0,3,0,0,18,18,86,,,,,,,,,,,,,527.931414199993,527.931414199993,528.4314550000126,,,,,,000589,00,25,M,2023-06-02_16h22.20.784,face_recognition_ERP_protocol,2022.2.5,59.88981472348976,
Celebs/39_Jim_Parsons_0010.jpg,non_target,3,0,3,0,0,19,19,0,,,,,,,,,,,,,528.9320389999775,528.9320389999775,529.4325856000069,,,,,,000589,00,25,M,2023-06-02_16h22.20.784,face_recognition_ERP_protocol,2022.2.5,59.88981472348976,
Celebs/15_Margot_Robbie_0012.jpg,non_target,3,0,3,0,0,20,20,82,,,,,,,,,,,,,529.9334370999713,529.9334370999713,530.4336258000112,,,,,,000589,00,25,M,2023-06-02_16h22.20.784,face_recognition_ERP_protocol,2022.2.5,59.88981472348976,
Celebs/18_Emma_Stone_0016.jpg,non_target,3,0,3,0,0,21,21,52,,,,,,,,,,,,,530.9345254999935,530.9345254999935,531.4345202000113,,,,,,000589,00,25,M,2023-06-02_16h22.20.784,face_recognition_ERP_protocol,2022.2.5,59.88981472348976,
Celebs/38_Will_Smith_0013.jpg,non_target,3,0,3,0,0,22,22,13,,,,,,,,,,,,,531.9357668000157,531.9357668000157,532.4359297999763,,,,,,000589,00,25,M,2023-06-02_16h22.20.784,face_recognition_ERP_protocol,2022.2.5,59.88981472348976,
Celebs/14_Emma_Watson_0015.jpg,non_target,3,0,3,0,0,23,23,56,,,,,,,,,,,,,532.9367194999941,532.9367194999941,533.4368114999961,,,,,,000589,00,25,M,2023-06-02_16h22.20.784,face_recognition_ERP_protocol,2022.2.5,59.88981472348976,
Celebs/58_Jackie_Chan_0005.jpg,non_target,3,0,3,0,0,24,24,3,,,,,,,,,,,,,533.9378568999819,533.9378568999819,534.4379991000169,,,,,,000589,00,25,M,2023-06-02_16h22.20.784,face_recognition_ERP_protocol,2022.2.5,59.88981472348976,
Celebs/55_Jackie_Chan_0008.jpg,non_target,3,0,3,0,0,25,25,92,,,,,,,,,,,,,534.9388794999686,534.9388794999686,535.4391569999862,,,,,,000589,00,25,M,2023-06-02_16h22.20.784,face_recognition_ERP_protocol,2022.2.5,59.88981472348976,
Celebs/19_Emma_Stone_0006.jpg,non_target,3,0,3,0,0,26,26,66,,,,,,,,,,,,,535.9402209999971,535.9402209999971,536.4403269999893,,,,,,000589,00,25,M,2023-06-02_16h22.20.784,face_recognition_ERP_protocol,2022.2.5,59.88981472348976,
Celebs/54_Jackie_Chan_0001.jpg,non_target,3,0,3,0,0,27,27,7,,,,,,,,,,,,,536.9410748999799,536.9410748999799,537.441369600012,,,,,,000589,00,25,M,2023-06-02_16h22.20.784,face_recognition_ERP_protocol,2022.2.5,59.88981472348976,
Celebs/43_Will_Smith_0010.jpg,non_target,3,0,3,0,0,28,28,22,,,,,,,,,,,,,537.9423646000214,537.9423646000214,538.4425112999743,,,,,,000589,00,25,M,2023-06-02_16h22.20.784,face_recognition_ERP_protocol,2022.2.5,59.88981472348976,
Celebs/52_Jackie_Chan_0002.jpg,non_target,3,0,3,0,0,29,29,68,,,,,,,,,,,,,538.9433726000134,538.9433726000134,539.443569199997,,,,,,000589,00,25,M,2023-06-02_16h22.20.784,face_recognition_ERP_protocol,2022.2.5,59.88981472348976,
Celebs/21_Daniel_Radcliffe_0002.jpg,target,3,0,3,0,0,30,30,60,,,,,,,,,,,,,539.9444533999776,539.9444533999776,540.4446138999774,,,,,,000589,00,25,M,2023-06-02_16h22.20.784,face_recognition_ERP_protocol,2022.2.5,59.88981472348976,
Celebs/21_Daniel_Radcliffe_0009.jpg,target,3,0,3,0,0,31,31,83,,,,,,,,,,,,,540.9456686999765,540.9456686999765,541.4456974000204,,,,,,000589,00,25,M,2023-06-02_16h22.20.784,face_recognition_ERP_protocol,2022.2.5,59.88981472348976,
Celebs/24_Emma_Stone_0015.jpg,non_target,3,0,3,0,0,32,32,57,,,,,,,,,,,,,541.9456189000048,541.9456189000048,542.4468564999988,,,,,,000589,00,25,M,2023-06-02_16h22.20.784,face_recognition_ERP_protocol,2022.2.5,59.88981472348976,
Celebs/42_Will_Smith_0012.jpg,non_target,3,0,3,0,0,33,33,64,,,,,,,,,,,,,542.932640700019,542.932640700019,543.4311831999803,,,,,,000589,00,25,M,2023-06-02_16h22.20.784,face_recognition_ERP_protocol,2022.2.5,59.88981472348976,
Celebs/20_Scarlett_Johansson_0011.jpg,non_target,3,0,3,0,0,34,34,109,,,,,,,,,,,,,543.9321038000053,543.9321038000053,544.4322991999798,,,,,,000589,00,25,M,2023-06-02_16h22.20.784,face_recognition_ERP_protocol,2022.2.5,59.88981472348976,
Celebs/16_Margot_Robbie_0009.jpg,non_target,3,0,3,0,0,35,35,107,,,,,,,,,,,,,544.9332511000102,544.9332511000102,545.4330240999698,,,,,,000589,00,25,M,2023-06-02_16h22.20.784,face_recognition_ERP_protocol,2022.2.5,59.88981472348976,
Celebs/16_Emma_Stone_0008.jpg,non_target,3,0,3,0,0,36,36,48,,,,,,,,,,,,,545.9343557999819,545.9343557999819,546.4345265000011,,,,,,000589,00,25,M,2023-06-02_16h22.20.784,face_recognition_ERP_protocol,2022.2.5,59.88981472348976,
Celebs/23_Daniel_Radcliffe_0019.jpg,target,3,0,3,0,0,37,37,6,,,,,,,,,,,,,546.9354351999937,546.9354351999937,547.4356061000144,,,,,,000589,00,25,M,2023-06-02_16h22.20.784,face_recognition_ERP_protocol,2022.2.5,59.88981472348976,
Celebs/47_Johnny_Depp_0009.jpg,non_target,3,0,3,0,0,38,38,23,,,,,,,,,,,,,547.9365819999948,547.9365819999948,548.4369304999709,,,,,,000589,00,25,M,2023-06-02_16h22.20.784,face_recognition_ERP_protocol,2022.2.5,59.88981472348976,
Celebs/33_Jim_Parsons_0011.jpg,non_target,3,0,3,0,0,39,39,34,,,,,,,,,,,,,548.9378713999758,548.9378713999758,549.4378242999665,,,,,,000589,00,25,M,2023-06-02_16h22.20.784,face_recognition_ERP_protocol,2022.2.5,59.88981472348976,
Celebs/50_Johnny_Depp_0008.jpg,non_target,3,0,3,0,0,40,40,84,,,,,,,,,,,,,549.9376110999729,549.9376110999729,550.4388903999934,,,,,,000589,00,25,M,2023-06-02_16h22.20.784,face_recognition_ERP_protocol,2022.2.5,59.88981472348976,
Celebs/17_Margot_Robbie_0006.jpg,non_target,3,0,3,0,0,41,41,17,,,,,,,,,,,,,550.9386342999642,550.9386342999642,551.4400065999944,,,,,,000589,00,25,M,2023-06-02_16h22.20.784,face_recognition_ERP_protocol,2022.2.5,59.88981472348976,
Celebs/38_Jim_Parsons_0003.jpg,non_target,3,0,3,0,0,42,42,53,,,,,,,,,,,,,551.9408941000002,551.9408941000002,552.4411119999713,,,,,,000589,00,25,M,2023-06-02_16h22.20.784,face_recognition_ERP_protocol,2022.2.5,59.88981472348976,
Celebs/17_Margot_Robbie_0014.jpg,non_target,3,0,3,0,0,43,43,114,,,,,,,,,,,,,552.9421697999933,552.9421697999933,553.4422548000002,,,,,,000589,00,25,M,2023-06-02_16h22.20.784,face_recognition_ERP_protocol,2022.2.5,59.88981472348976,
Celebs/16_Emma_Stone_0012.jpg,non_target,3,0,3,0,0,44,44,70,,,,,,,,,,,,,553.9431095999898,553.9431095999898,554.4433013999951,,,,,,000589,00,25,M,2023-06-02_16h22.20.784,face_recognition_ERP_protocol,2022.2.5,59.88981472348976,
Celebs/14_Emma_Watson_0005.jpg,non_target,3,0,3,0,0,45,45,26,,,,,,,,,,,,,554.9442875999957,554.9442875999957,555.44425890001,,,,,,000589,00,25,M,2023-06-02_16h22.20.784,face_recognition_ERP_protocol,2022.2.5,59.88981472348976,
Celebs/29_Scarlett_Johansson_0016.jpg,non_target,3,0,3,0,0,46,46,2,,,,,,,,,,,,,555.9451921000145,555.9451921000145,556.4450902999961,,,,,,000589,00,25,M,2023-06-02_16h22.20.784,face_recognition_ERP_protocol,2022.2.5,59.88981472348976,
Celebs/17_Margot_Robbie_0012.jpg,non_target,3,0,3,0,0,47,47,67,,,,,,,,,,,,,556.9465136000072,556.9465136000072,557.4464427999919,,,,,,000589,00,25,M,2023-06-02_16h22.20.784,face_recognition_ERP_protocol,2022.2.5,59.88981472348976,
Celebs/22_Emma_Stone_0013.jpg,non_target,3,0,3,0,0,48,48,1,,,,,,,,,,,,,557.9479235999752,557.9479235999752,558.4309760999749,,,,,,000589,00,25,M,2023-06-02_16h22.20.784,face_recognition_ERP_protocol,2022.2.5,59.88981472348976,
Celebs/20_Emma_Watson_0007.jpg,non_target,3,0,3,0,0,49,49,96,,,,,,,,,,,,,558.9320829000208,558.9320829000208,559.4320286000147,,,,,,000589,00,25,M,2023-06-02_16h22.20.784,face_recognition_ERP_protocol,2022.2.5,59.88981472348976,
Celebs/44_Will_Smith_0006.jpg,non_target,3,0,3,0,0,50,50,41,,,,,,,,,,,,,559.9330351999961,559.9330351999961,560.4330898000044,,,,,,000589,00,25,M,2023-06-02_16h22.20.784,face_recognition_ERP_protocol,2022.2.5,59.88981472348976,
Celebs/16_Emma_Stone_0010.jpg,non_target,3,0,3,0,0,51,51,95,,,,,,,,,,,,,560.9342021999764,560.9342021999764,561.4342195999925,,,,,,000589,00,25,M,2023-06-02_16h22.20.784,face_recognition_ERP_protocol,2022.2.5,59.88981472348976,
Celebs/24_Scarlett_Johansson_0011.jpg,non_target,3,0,3,0,0,52,52,100,,,,,,,,,,,,,561.9350545000052,561.9350545000052,562.4353873999789,,,,,,000589,00,25,M,2023-06-02_16h22.20.784,face_recognition_ERP_protocol,2022.2.5,59.88981472348976,
Celebs/21_Scarlett_Johansson_0007.jpg,non_target,3,0,3,0,0,53,53,118,,,,,,,,,,,,,562.9360817999695,562.9360817999695,563.4364847000106,,,,,,000589,00,25,M,2023-06-02_16h22.20.784,face_recognition_ERP_protocol,2022.2.5,59.88981472348976,
Celebs/14_Emma_Watson_0013.jpg,non_target,3,0,3,0,0,54,54,20,,,,,,,,,,,,,563.9380821000086,563.9380821000086,564.4375542000053,,,,,,000589,00,25,M,2023-06-02_16h22.20.784,face_recognition_ERP_protocol,2022.2.5,59.88981472348976,
Celebs/55_Jackie_Chan_0015.jpg,non_target,3,0,3,0,0,55,55,30,,,,,,,,,,,,,564.9384834999801,564.9384834999801,565.4386058999808,,,,,,000589,00,25,M,2023-06-02_16h22.20.784,face_recognition_ERP_protocol,2022.2.5,59.88981472348976,
Celebs/40_Jim_Parsons_0004.jpg,non_target,3,0,3,0,0,56,56,73,,,,,,,,,,,,,565.9384657000192,565.9384657000192,566.4397847999935,,,,,,000589,00,25,M,2023-06-02_16h22.20.784,face_recognition_ERP_protocol,2022.2.5,59.88981472348976,
Celebs/22_Margot_Robbie_0010.jpg,non_target,3,0,3,0,0,57,57,18,,,,,,,,,,,,,566.9405184999923,566.9405184999923,567.4408466999885,,,,,,000589,00,25,M,2023-06-02_16h22.20.784,face_recognition_ERP_protocol,2022.2.5,59.88981472348976,
Celebs/20_Margot_Robbie_0006.jpg,non_target,3,0,3,0,0,58,58,35,,,,,,,,,,,,,567.941765399999,567.941765399999,568.4419604999712,,,,,,000589,00,25,M,2023-06-02_16h22.20.784,face_recognition_ERP_protocol,2022.2.5,59.88981472348976,
Celebs/54_Jackie_Chan_0014.jpg,non_target,3,0,3,0,0,59,59,111,,,,,,,,,,,,,568.9428709999775,568.9428709999775,569.4426154000103,,,,,,000589,00,25,M,2023-06-02_16h22.20.784,face_recognition_ERP_protocol,2022.2.5,59.88981472348976,
Celebs/39_Neil_Patrick_Harris_0010.jpg,non_target,3,0,3,0,0,60,60,94,,,,,,,,,,,,,569.9441203000024,569.9441203000024,570.4441679000156,,,,,,000589,00,25,M,2023-06-02_16h22.20.784,face_recognition_ERP_protocol,2022.2.5,59.88981472348976,
Celebs/39_Jim_Parsons_0001.jpg,non_target,3,0,3,0,0,61,61,49,,,,,,,,,,,,,570.9449846000061,570.9449846000061,571.4452401999733,,,,,,000589,00,25,M,2023-06-02_16h22.20.784,face_recognition_ERP_protocol,2022.2.5,59.88981472348976,
Celebs/20_Emma_Stone_0005.jpg,non_target,3,0,3,0,0,62,62,63,,,,,,,,,,,,,571.9455086999806,571.9455086999806,572.4463921000133,,,,,,000589,00,25,M,2023-06-02_16h22.20.784,face_recognition_ERP_protocol,2022.2.5,59.88981472348976,
Celebs/50_Johnny_Depp_0018.jpg,non_target,3,0,3,0,0,63,63,24,,,,,,,,,,,,,572.9475647999789,572.9475647999789,573.4474211999914,,,,,,000589,00,25,M,2023-06-02_16h22.20.784,face_recognition_ERP_protocol,2022.2.5,59.88981472348976,
Celebs/23_Daniel_Radcliffe_0010.jpg,target,3,0,3,0,0,64,64,15,,,,,,,,,,,,,573.9317807999905,573.9317807999905,574.4317690000171,,,,,,000589,00,25,M,2023-06-02_16h22.20.784,face_recognition_ERP_protocol,2022.2.5,59.88981472348976,
Celebs/18_Daniel_Radcliffe_0008.jpg,target,3,0,3,0,0,65,65,28,,,,,,,,,,,,,574.9327357999864,574.9327357999864,575.4328600000008,,,,,,000589,00,25,M,2023-06-02_16h22.20.784,face_recognition_ERP_protocol,2022.2.5,59.88981472348976,
