image,stimulus,trial_block.thisRepN,trial_block.thisTrialN,trial_block.thisN,trial_block.thisIndex,trials.thisRepN,trials.thisTrialN,trials.thisN,trials.thisIndex,welcome_text.started,instructions_text.started,spacebar_key.started,spacebar_key.keys,spacebar_key.rt,eye_text.started,eye_text.stopped,text.started,text.stopped,closedEyes_text.started,beep.started,closedEyes_text.stopped,trialImage.started,polygon.started,blank_text.started,trialBlockText.started,new_trialblock.started,new_trialblock.keys,new_trialblock.rt,goodbye_text.started,goodbye_text.stopped,participant,session,age,gender,date,expName,psychopyVersion,frameRate,
,,,,,,,,,,17.254168099956587,19.25725500000408,19.25725500000408,space,18.07245390000753,,,,,,,,,,,,,,,,,000639,001,,,2023-06-02_17h03.38.764,face_recognition_ERP_protocol,2022.2.5,59.857622647763755,
Celebs/50_Johnny_Depp_0004.jpg,non_target,0,0,0,0,0,0,0,39,,,,,,37.36053919995902,52.36017479997827,52.36017479997827,67.36017900001025,67.36017900001025,82.35957297999411,82.35959459998412,82.42541510000592,82.42541510000592,82.89353969995864,,,,,,,000639,001,,,2023-06-02_17h03.38.764,face_recognition_ERP_protocol,2022.2.5,59.857622647763755,
Celebs/22_Scarlett_Johansson_0005.jpg,non_target,0,0,0,0,0,1,1,44,,,,,,,,,,,,,83.37846320000244,83.37846320000244,83.8779380999622,,,,,,,000639,001,,,2023-06-02_17h03.38.764,face_recognition_ERP_protocol,2022.2.5,59.857622647763755,
Celebs/48_Johnny_Depp_0003.jpg,non_target,0,0,0,0,0,2,2,55,,,,,,,,,,,,,84.37938719999511,84.37938719999511,84.87909299996682,,,,,,,000639,001,,,2023-06-02_17h03.38.764,face_recognition_ERP_protocol,2022.2.5,59.857622647763755,
Celebs/25_Scarlett_Johansson_0010.jpg,non_target,0,0,0,0,0,3,3,32,,,,,,,,,,,,,85.38012789998902,85.38012789998902,85.88013750000391,,,,,,,000639,001,,,2023-06-02_17h03.38.764,face_recognition_ERP_protocol,2022.2.5,59.857622647763755,
Celebs/58_Jackie_Chan_0005.jpg,non_target,0,0,0,0,0,4,4,3,,,,,,,,,,,,,86.38122009998187,86.38122009998187,86.88120999996318,,,,,,,000639,001,,,2023-06-02_17h03.38.764,face_recognition_ERP_protocol,2022.2.5,59.857622647763755,
Celebs/21_Daniel_Radcliffe_0008.jpg,target,0,0,0,0,0,5,5,16,,,,,,,,,,,,,87.38232209999114,87.38232209999114,87.88232689996948,,,,,,,000639,001,,,2023-06-02_17h03.38.764,face_recognition_ERP_protocol,2022.2.5,59.857622647763755,
Celebs/22_Emma_Watson_0010.jpg,non_target,0,0,0,0,0,6,6,11,,,,,,,,,,,,,88.38327109999955,88.38327109999955,88.88344659999711,,,,,,,000639,001,,,2023-06-02_17h03.38.764,face_recognition_ERP_protocol,2022.2.5,59.857622647763755,
Celebs/24_Scarlett_Johansson_0011.jpg,non_target,0,0,0,0,0,7,7,100,,,,,,,,,,,,,89.38451239996357,89.38451239996357,89.8845060999738,,,,,,,000639,001,,,2023-06-02_17h03.38.764,face_recognition_ERP_protocol,2022.2.5,59.857622647763755,
Celebs/29_Scarlett_Johansson_0010.jpg,non_target,0,0,0,0,0,8,8,85,,,,,,,,,,,,,90.38713759998791,90.38713759998791,90.88562319998164,,,,,,,000639,001,,,2023-06-02_17h03.38.764,face_recognition_ERP_protocol,2022.2.5,59.857622647763755,
Celebs/39_Neil_Patrick_Harris_0001.jpg,non_target,0,0,0,0,0,9,9,4,,,,,,,,,,,,,91.38720970001305,91.38720970001305,91.88670159998583,,,,,,,000639,001,,,2023-06-02_17h03.38.764,face_recognition_ERP_protocol,2022.2.5,59.857622647763755,
Celebs/40_Jim_Parsons_0004.jpg,non_target,0,0,0,0,0,10,10,73,,,,,,,,,,,,,92.38840870000422,92.38840870000422,92.88785279996227,,,,,,,000639,001,,,2023-06-02_17h03.38.764,face_recognition_ERP_protocol,2022.2.5,59.857622647763755,
Celebs/27_Scarlett_Johansson_0012.jpg,non_target,0,0,0,0,0,11,11,78,,,,,,,,,,,,,93.38928159995703,93.38928159995703,93.88889439997729,,,,,,,000639,001,,,2023-06-02_17h03.38.764,face_recognition_ERP_protocol,2022.2.5,59.857622647763755,
Celebs/55_Jackie_Chan_0008.jpg,non_target,0,0,0,0,0,12,12,92,,,,,,,,,,,,,94.39036999997916,94.39036999997916,94.88996529998258,,,,,,,000639,001,,,2023-06-02_17h03.38.764,face_recognition_ERP_protocol,2022.2.5,59.857622647763755,
Celebs/16_Emma_Stone_0014.jpg,non_target,0,0,0,0,0,13,13,40,,,,,,,,,,,,,95.39133720000973,95.39133720000973,95.89106569997966,,,,,,,000639,001,,,2023-06-02_17h03.38.764,face_recognition_ERP_protocol,2022.2.5,59.857622647763755,
Celebs/44_Will_Smith_0007.jpg,non_target,0,0,0,0,0,14,14,65,,,,,,,,,,,,,96.39223599998513,96.39223599998513,96.89222999999765,,,,,,,000639,001,,,2023-06-02_17h03.38.764,face_recognition_ERP_protocol,2022.2.5,59.857622647763755,
Celebs/55_Jackie_Chan_0015.jpg,non_target,0,0,0,0,0,15,15,30,,,,,,,,,,,,,97.39323599997442,97.39323599997442,97.89327659999253,,,,,,,000639,001,,,2023-06-02_17h03.38.764,face_recognition_ERP_protocol,2022.2.5,59.857622647763755,
Celebs/21_Emma_Watson_0004.jpg,non_target,0,0,0,0,0,16,16,21,,,,,,,,,,,,,98.3784483000054,98.3784483000054,98.87768649996724,,,,,,,000639,001,,,2023-06-02_17h03.38.764,face_recognition_ERP_protocol,2022.2.5,59.857622647763755,
Celebs/31_Neil_Patrick_Harris_0008.jpg,non_target,0,0,0,0,0,17,17,99,,,,,,,,,,,,,99.37920959998155,99.37920959998155,99.87888440000825,,,,,,,000639,001,,,2023-06-02_17h03.38.764,face_recognition_ERP_protocol,2022.2.5,59.857622647763755,
Celebs/17_Emma_Watson_0006.jpg,non_target,0,0,0,0,0,18,18,90,,,,,,,,,,,,,100.38023599999724,100.38023599999724,100.87992559996201,,,,,,,000639,001,,,2023-06-02_17h03.38.764,face_recognition_ERP_protocol,2022.2.5,59.857622647763755,
Celebs/14_Emma_Watson_0005.jpg,non_target,0,0,0,0,0,19,19,26,,,,,,,,,,,,,101.38101690000622,101.38101690000622,101.88095059996704,,,,,,,000639,001,,,2023-06-02_17h03.38.764,face_recognition_ERP_protocol,2022.2.5,59.857622647763755,
Celebs/21_Emma_Stone_0003.jpg,non_target,0,0,0,0,0,20,20,25,,,,,,,,,,,,,102.38199119997444,102.38199119997444,102.88204699999187,,,,,,,000639,001,,,2023-06-02_17h03.38.764,face_recognition_ERP_protocol,2022.2.5,59.857622647763755,
Celebs/45_Will_Smith_0014.jpg,non_target,0,0,0,0,0,21,21,59,,,,,,,,,,,,,103.38382589997491,103.38382589997491,103.88323300000047,,,,,,,000639,001,,,2023-06-02_17h03.38.764,face_recognition_ERP_protocol,2022.2.5,59.857622647763755,
Celebs/38_Neil_Patrick_Harris_0006.jpg,non_target,0,0,0,0,0,22,22,31,,,,,,,,,,,,,104.3846077999915,104.3846077999915,104.88423189998139,,,,,,,000639,001,,,2023-06-02_17h03.38.764,face_recognition_ERP_protocol,2022.2.5,59.857622647763755,
Celebs/57_Jackie_Chan_0008.jpg,non_target,0,0,0,0,0,23,23,72,,,,,,,,,,,,,105.38574579998385,105.38574579998385,105.88535249995766,,,,,,,000639,001,,,2023-06-02_17h03.38.764,face_recognition_ERP_protocol,2022.2.5,59.857622647763755,
Celebs/55_Jackie_Chan_0003.jpg,non_target,0,0,0,0,0,24,24,29,,,,,,,,,,,,,106.3868264000048,106.3868264000048,106.8858452999848,,,,,,,000639,001,,,2023-06-02_17h03.38.764,face_recognition_ERP_protocol,2022.2.5,59.857622647763755,
Celebs/21_Margot_Robbie_0003.jpg,non_target,0,0,0,0,0,25,25,27,,,,,,,,,,,,,107.38815690000774,107.38815690000774,107.88755059998948,,,,,,,000639,001,,,2023-06-02_17h03.38.764,face_recognition_ERP_protocol,2022.2.5,59.857622647763755,
Celebs/19_Emma_Stone_0006.jpg,non_target,0,0,0,0,0,26,26,66,,,,,,,,,,,,,108.38909630000126,108.38909630000126,108.8886635999661,,,,,,,000639,001,,,2023-06-02_17h03.38.764,face_recognition_ERP_protocol,2022.2.5,59.857622647763755,
Celebs/47_Johnny_Depp_0009.jpg,non_target,0,0,0,0,0,27,27,23,,,,,,,,,,,,,109.38978359999601,109.38978359999601,109.88971489999676,,,,,,,000639,001,,,2023-06-02_17h03.38.764,face_recognition_ERP_protocol,2022.2.5,59.857622647763755,
Celebs/21_Daniel_Radcliffe_0012.jpg,target,0,0,0,0,0,28,28,8,,,,,,,,,,,,,110.39083319995552,110.39083319995552,110.89083679998294,,,,,,,000639,001,,,2023-06-02_17h03.38.764,face_recognition_ERP_protocol,2022.2.5,59.857622647763755,
Celebs/49_Johnny_Depp_0013.jpg,non_target,0,0,0,0,0,29,29,33,,,,,,,,,,,,,111.39251529995818,111.39251529995818,111.89191199996276,,,,,,,000639,001,,,2023-06-02_17h03.38.764,face_recognition_ERP_protocol,2022.2.5,59.857622647763755,
Celebs/14_Emma_Watson_0004.jpg,non_target,0,0,0,0,0,30,30,14,,,,,,,,,,,,,112.39298299996881,112.39298299996881,112.89301189995604,,,,,,,000639,001,,,2023-06-02_17h03.38.764,face_recognition_ERP_protocol,2022.2.5,59.857622647763755,
Celebs/50_Jackie_Chan_0012.jpg,non_target,0,0,0,0,0,31,31,43,,,,,,,,,,,,,113.3940921999747,113.3940921999747,113.87744239997119,,,,,,,000639,001,,,2023-06-02_17h03.38.764,face_recognition_ERP_protocol,2022.2.5,59.857622647763755,
Celebs/17_Margot_Robbie_0014.jpg,non_target,0,0,0,0,0,32,32,114,,,,,,,,,,,,,114.3788835000014,114.3788835000014,114.87856290000491,,,,,,,000639,001,,,2023-06-02_17h03.38.764,face_recognition_ERP_protocol,2022.2.5,59.857622647763755,
Celebs/19_Margot_Robbie_0004.jpg,non_target,0,0,0,0,0,33,33,42,,,,,,,,,,,,,115.37972179998178,115.37972179998178,115.87961890001316,,,,,,,000639,001,,,2023-06-02_17h03.38.764,face_recognition_ERP_protocol,2022.2.5,59.857622647763755,
Celebs/20_Margot_Robbie_0006.jpg,non_target,0,0,0,0,0,34,34,35,,,,,,,,,,,,,116.38084060000256,116.38084060000256,116.88076999998884,,,,,,,000639,001,,,2023-06-02_17h03.38.764,face_recognition_ERP_protocol,2022.2.5,59.857622647763755,
Celebs/37_Will_Smith_0015.jpg,non_target,0,0,0,0,0,35,35,113,,,,,,,,,,,,,117.3819775999873,117.3819775999873,117.88181319995783,,,,,,,000639,001,,,2023-06-02_17h03.38.764,face_recognition_ERP_protocol,2022.2.5,59.857622647763755,
Celebs/21_Emma_Stone_0002.jpg,non_target,0,0,0,0,0,36,36,103,,,,,,,,,,,,,118.38327049999498,118.38327049999498,118.8829265999957,,,,,,,000639,001,,,2023-06-02_17h03.38.764,face_recognition_ERP_protocol,2022.2.5,59.857622647763755,
Celebs/47_Johnny_Depp_0004.jpg,non_target,0,0,0,0,0,37,37,76,,,,,,,,,,,,,119.38412179995794,119.38412179995794,119.88396820001071,,,,,,,000639,001,,,2023-06-02_17h03.38.764,face_recognition_ERP_protocol,2022.2.5,59.857622647763755,
Celebs/14_Emma_Watson_0008.jpg,non_target,0,0,0,0,0,38,38,36,,,,,,,,,,,,,120.38553629996022,120.38553629996022,120.88510730001144,,,,,,,000639,001,,,2023-06-02_17h03.38.764,face_recognition_ERP_protocol,2022.2.5,59.857622647763755,
Celebs/26_Scarlett_Johansson_0003.jpg,non_target,0,0,0,0,0,39,39,105,,,,,,,,,,,,,121.38618309999583,121.38618309999583,121.88615119998576,,,,,,,000639,001,,,2023-06-02_17h03.38.764,face_recognition_ERP_protocol,2022.2.5,59.857622647763755,
Celebs/17_Daniel_Radcliffe_0007.jpg,target,0,0,0,0,0,40,40,19,,,,,,,,,,,,,122.38752180000301,122.38752180000301,122.88726649997989,,,,,,,000639,001,,,2023-06-02_17h03.38.764,face_recognition_ERP_protocol,2022.2.5,59.857622647763755,
Celebs/38_Will_Smith_0013.jpg,non_target,0,0,0,0,0,41,41,13,,,,,,,,,,,,,123.39022729999851,123.39022729999851,123.88841969997156,,,,,,,000639,001,,,2023-06-02_17h03.38.764,face_recognition_ERP_protocol,2022.2.5,59.857622647763755,
Celebs/22_Margot_Robbie_0010.jpg,non_target,0,0,0,0,0,42,42,18,,,,,,,,,,,,,124.38971049996326,124.38971049996326,124.8894861000008,,,,,,,000639,001,,,2023-06-02_17h03.38.764,face_recognition_ERP_protocol,2022.2.5,59.857622647763755,
Celebs/43_Will_Smith_0006.jpg,non_target,0,0,0,0,0,43,43,61,,,,,,,,,,,,,125.39091429999098,125.39091429999098,125.89057569997385,,,,,,,000639,001,,,2023-06-02_17h03.38.764,face_recognition_ERP_protocol,2022.2.5,59.857622647763755,
Celebs/23_Daniel_Radcliffe_0010.jpg,target,0,0,0,0,0,44,44,15,,,,,,,,,,,,,126.39154719997896,126.39154719997896,126.8916506000096,,,,,,,000639,001,,,2023-06-02_17h03.38.764,face_recognition_ERP_protocol,2022.2.5,59.857622647763755,
Celebs/18_Daniel_Radcliffe_0002.jpg,target,0,0,0,0,0,45,45,119,,,,,,,,,,,,,127.39301579998573,127.39301579998573,127.89276289998088,,,,,,,000639,001,,,2023-06-02_17h03.38.764,face_recognition_ERP_protocol,2022.2.5,59.857622647763755,
Celebs/18_Emma_Watson_0004.jpg,non_target,0,0,0,0,0,46,46,75,,,,,,,,,,,,,128.3941451999708,128.3941451999708,128.87719199998537,,,,,,,000639,001,,,2023-06-02_17h03.38.764,face_recognition_ERP_protocol,2022.2.5,59.857622647763755,
Celebs/50_Johnny_Depp_0008.jpg,non_target,0,0,0,0,0,47,47,84,,,,,,,,,,,,,129.37883529998362,129.37883529998362,129.87826879997738,,,,,,,000639,001,,,2023-06-02_17h03.38.764,face_recognition_ERP_protocol,2022.2.5,59.857622647763755,
Celebs/36_Neil_Patrick_Harris_0007.jpg,non_target,0,0,0,0,0,48,48,5,,,,,,,,,,,,,130.37964920001104,130.37964920001104,130.87932519998867,,,,,,,000639,001,,,2023-06-02_17h03.38.764,face_recognition_ERP_protocol,2022.2.5,59.857622647763755,
Celebs/39_Jim_Parsons_0008.jpg,non_target,0,0,0,0,0,49,49,89,,,,,,,,,,,,,131.38041859999066,131.38041859999066,131.88047209999058,,,,,,,000639,001,,,2023-06-02_17h03.38.764,face_recognition_ERP_protocol,2022.2.5,59.857622647763755,
Celebs/22_Emma_Watson_0001.jpg,non_target,0,0,0,0,0,50,50,58,,,,,,,,,,,,,132.38253709999844,132.38253709999844,132.8815595000051,,,,,,,000639,001,,,2023-06-02_17h03.38.764,face_recognition_ERP_protocol,2022.2.5,59.857622647763755,
Celebs/15_Margot_Robbie_0012.jpg,non_target,0,0,0,0,0,51,51,82,,,,,,,,,,,,,133.38264749996597,133.38264749996597,133.8826984000043,,,,,,,000639,001,,,2023-06-02_17h03.38.764,face_recognition_ERP_protocol,2022.2.5,59.857622647763755,
Celebs/38_Jim_Parsons_0003.jpg,non_target,0,0,0,0,0,52,52,53,,,,,,,,,,,,,134.38384959998075,134.38384959998075,134.8837257999694,,,,,,,000639,001,,,2023-06-02_17h03.38.764,face_recognition_ERP_protocol,2022.2.5,59.857622647763755,
Celebs/16_Emma_Stone_0010.jpg,non_target,0,0,0,0,0,53,53,95,,,,,,,,,,,,,135.3851039999863,135.3851039999863,135.88482259999728,,,,,,,000639,001,,,2023-06-02_17h03.38.764,face_recognition_ERP_protocol,2022.2.5,59.857622647763755,
Celebs/43_Will_Smith_0010.jpg,non_target,0,0,0,0,0,54,54,22,,,,,,,,,,,,,136.3861084000091,136.3861084000091,136.8858892999706,,,,,,,000639,001,,,2023-06-02_17h03.38.764,face_recognition_ERP_protocol,2022.2.5,59.857622647763755,
Celebs/22_Emma_Stone_0013.jpg,non_target,0,0,0,0,0,55,55,1,,,,,,,,,,,,,137.38688399997773,137.38688399997773,137.88699410000117,,,,,,,000639,001,,,2023-06-02_17h03.38.764,face_recognition_ERP_protocol,2022.2.5,59.857622647763755,
Celebs/20_Emma_Stone_0005.jpg,non_target,0,0,0,0,0,56,56,63,,,,,,,,,,,,,138.38835279998602,138.38835279998602,138.8881204999634,,,,,,,000639,001,,,2023-06-02_17h03.38.764,face_recognition_ERP_protocol,2022.2.5,59.857622647763755,
Celebs/50_Johnny_Depp_0010.jpg,non_target,0,0,0,0,0,57,57,115,,,,,,,,,,,,,139.38913699996192,139.38913699996192,139.8902448999579,,,,,,,000639,001,,,2023-06-02_17h03.38.764,face_recognition_ERP_protocol,2022.2.5,59.857622647763755,
Celebs/54_Jackie_Chan_0001.jpg,non_target,0,0,0,0,0,58,58,7,,,,,,,,,,,,,140.3901734999963,140.3901734999963,140.8903607999673,,,,,,,000639,001,,,2023-06-02_17h03.38.764,face_recognition_ERP_protocol,2022.2.5,59.857622647763755,
Celebs/47_Johnny_Depp_0003.jpg,non_target,0,0,0,0,0,59,59,9,,,,,,,,,,,,,141.3916787999915,141.3916787999915,141.89140929997666,,,,,,,000639,001,,,2023-06-02_17h03.38.764,face_recognition_ERP_protocol,2022.2.5,59.857622647763755,
Celebs/21_Scarlett_Johansson_0007.jpg,non_target,0,0,0,0,0,60,60,118,,,,,,,,,,,,,142.39283440000145,142.39283440000145,142.89248169999337,,,,,,,000639,001,,,2023-06-02_17h03.38.764,face_recognition_ERP_protocol,2022.2.5,59.857622647763755,
Celebs/34_Neil_Patrick_Harris_0004.jpg,non_target,0,0,0,0,0,61,61,104,,,,,,,,,,,,,143.39356419997057,143.39356419997057,143.89357539999764,,,,,,,000639,001,,,2023-06-02_17h03.38.764,face_recognition_ERP_protocol,2022.2.5,59.857622647763755,
Celebs/17_Margot_Robbie_0006.jpg,non_target,0,0,0,0,0,62,62,17,,,,,,,,,,,,,144.3782964000129,144.3782964000129,144.8779685999616,,,,,,,000639,001,,,2023-06-02_17h03.38.764,face_recognition_ERP_protocol,2022.2.5,59.857622647763755,
Celebs/37_Neil_Patrick_Harris_0010.jpg,non_target,0,0,0,0,0,63,63,93,,,,,,,,,,,,,145.37962689995766,145.37962689995766,145.87909140001284,,,,,,,000639,001,,,2023-06-02_17h03.38.764,face_recognition_ERP_protocol,2022.2.5,59.857622647763755,
Celebs/14_Emma_Watson_0013.jpg,non_target,0,0,0,0,0,64,64,20,,,,,,,,,,,,,146.38114049995784,146.38114049995784,146.8801638999721,,,,,,,000639,001,,,2023-06-02_17h03.38.764,face_recognition_ERP_protocol,2022.2.5,59.857622647763755,
Celebs/20_Emma_Watson_0007.jpg,non_target,0,0,0,0,0,65,65,96,,,,,,,,,,,,,147.38147600000957,147.38147600000957,147.88131839997368,,,,,,,000639,001,,,2023-06-02_17h03.38.764,face_recognition_ERP_protocol,2022.2.5,59.857622647763755,
Celebs/18_Emma_Stone_0016.jpg,non_target,0,0,0,0,0,66,66,52,,,,,,,,,,,,,148.3823718999629,148.3823718999629,148.8824129999848,,,,,,,000639,001,,,2023-06-02_17h03.38.764,face_recognition_ERP_protocol,2022.2.5,59.857622647763755,
Celebs/23_Emma_Stone_0014.jpg,non_target,0,0,0,0,0,67,67,12,,,,,,,,,,,,,149.38397789996816,149.38397789996816,149.88352619996294,,,,,,,000639,001,,,2023-06-02_17h03.38.764,face_recognition_ERP_protocol,2022.2.5,59.857622647763755,
Celebs/24_Emma_Stone_0015.jpg,non_target,0,0,0,0,0,68,68,57,,,,,,,,,,,,,150.38498199998867,150.38498199998867,150.88455849996535,,,,,,,000639,001,,,2023-06-02_17h03.38.764,face_recognition_ERP_protocol,2022.2.5,59.857622647763755,
Celebs/45_Johnny_Depp_0003.jpg,non_target,0,0,0,0,0,69,69,108,,,,,,,,,,,,,151.386354999966,151.386354999966,151.88569560000906,,,,,,,000639,001,,,2023-06-02_17h03.38.764,face_recognition_ERP_protocol,2022.2.5,59.857622647763755,
Celebs/50_Jackie_Chan_0014.jpg,non_target,0,0,0,0,0,70,70,38,,,,,,,,,,,,,152.3871722999611,152.3871722999611,152.8867740999558,,,,,,,000639,001,,,2023-06-02_17h03.38.764,face_recognition_ERP_protocol,2022.2.5,59.857622647763755,
Celebs/39_Jim_Parsons_0001.jpg,non_target,0,0,0,0,0,71,71,49,,,,,,,,,,,,,153.38793169998098,153.38793169998098,153.88783079996938,,,,,,,000639,001,,,2023-06-02_17h03.38.764,face_recognition_ERP_protocol,2022.2.5,59.857622647763755,
Celebs/50_Johnny_Depp_0018.jpg,non_target,0,0,0,0,0,72,72,24,,,,,,,,,,,,,154.38800350000383,154.38800350000383,154.8889452999574,,,,,,,000639,001,,,2023-06-02_17h03.38.764,face_recognition_ERP_protocol,2022.2.5,59.857622647763755,
Celebs/54_Jackie_Chan_0014.jpg,non_target,0,0,0,0,0,73,73,111,,,,,,,,,,,,,155.3904671999626,155.3904671999626,155.89003389998106,,,,,,,000639,001,,,2023-06-02_17h03.38.764,face_recognition_ERP_protocol,2022.2.5,59.857622647763755,
Celebs/19_Margot_Robbie_0001.jpg,non_target,0,0,0,0,0,74,74,51,,,,,,,,,,,,,156.39374579995638,156.39374579995638,156.89114749996224,,,,,,,000639,001,,,2023-06-02_17h03.38.764,face_recognition_ERP_protocol,2022.2.5,59.857622647763755,
Celebs/16_Margot_Robbie_0009.jpg,non_target,0,0,0,0,0,75,75,107,,,,,,,,,,,,,157.39281260001007,157.39281260001007,157.89226459997008,,,,,,,000639,001,,,2023-06-02_17h03.38.764,face_recognition_ERP_protocol,2022.2.5,59.857622647763755,
Celebs/42_Will_Smith_0012.jpg,non_target,0,0,0,0,0,76,76,64,,,,,,,,,,,,,158.39384919998702,158.39384919998702,158.89331489999313,,,,,,,000639,001,,,2023-06-02_17h03.38.764,face_recognition_ERP_protocol,2022.2.5,59.857622647763755,
Celebs/51_Jackie_Chan_0006.jpg,non_target,0,0,0,0,0,77,77,97,,,,,,,,,,,,,159.37825899996096,159.37825899996096,159.8777667999966,,,,,,,000639,001,,,2023-06-02_17h03.38.764,face_recognition_ERP_protocol,2022.2.5,59.857622647763755,
Celebs/28_Scarlett_Johansson_0005.jpg,non_target,0,0,0,0,0,78,78,50,,,,,,,,,,,,,160.3793858999852,160.3793858999852,160.8788540000096,,,,,,,000639,001,,,2023-06-02_17h03.38.764,face_recognition_ERP_protocol,2022.2.5,59.857622647763755,
Celebs/20_Margot_Robbie_0004.jpg,non_target,0,0,0,0,0,79,79,116,,,,,,,,,,,,,161.3799206999829,161.3799206999829,161.87993429997005,,,,,,,000639,001,,,2023-06-02_17h03.38.764,face_recognition_ERP_protocol,2022.2.5,59.857622647763755,
Celebs/32_Jim_Parsons_0018.jpg,non_target,0,0,0,0,0,80,80,46,,,,,,,,,,,,,162.38083059998462,162.38083059998462,162.88104070001282,,,,,,,000639,001,,,2023-06-02_17h03.38.764,face_recognition_ERP_protocol,2022.2.5,59.857622647763755,
Celebs/39_Jim_Parsons_0004.jpg,non_target,0,0,0,0,0,81,81,88,,,,,,,,,,,,,163.3822341999621,163.3822341999621,163.8821486000088,,,,,,,000639,001,,,2023-06-02_17h03.38.764,face_recognition_ERP_protocol,2022.2.5,59.857622647763755,
Celebs/45_Will_Smith_0010.jpg,non_target,0,0,0,0,0,82,82,69,,,,,,,,,,,,,164.38354529999197,164.38354529999197,164.88325889996486,,,,,,,000639,001,,,2023-06-02_17h03.38.764,face_recognition_ERP_protocol,2022.2.5,59.857622647763755,
Celebs/48_Johnny_Depp_0001.jpg,non_target,0,0,0,0,0,83,83,106,,,,,,,,,,,,,165.38451040000655,165.38451040000655,165.88445889996365,,,,,,,000639,001,,,2023-06-02_17h03.38.764,face_recognition_ERP_protocol,2022.2.5,59.857622647763755,
Celebs/36_Neil_Patrick_Harris_0010.jpg,non_target,0,0,0,0,0,84,84,79,,,,,,,,,,,,,166.3858806999633,166.3858806999633,166.8854923999752,,,,,,,000639,001,,,2023-06-02_17h03.38.764,face_recognition_ERP_protocol,2022.2.5,59.857622647763755,
Celebs/33_Jim_Parsons_0011.jpg,non_target,0,0,0,0,0,85,85,34,,,,,,,,,,,,,167.38704339996912,167.38704339996912,167.886502999987,,,,,,,000639,001,,,2023-06-02_17h03.38.764,face_recognition_ERP_protocol,2022.2.5,59.857622647763755,
Celebs/26_Scarlett_Johansson_0008.jpg,non_target,0,0,0,0,0,86,86,47,,,,,,,,,,,,,168.38771350000752,168.38771350000752,168.88760560000082,,,,,,,000639,001,,,2023-06-02_17h03.38.764,face_recognition_ERP_protocol,2022.2.5,59.857622647763755,
Celebs/21_Daniel_Radcliffe_0009.jpg,target,0,0,0,0,0,87,87,83,,,,,,,,,,,,,169.38878400000976,169.38878400000976,169.88868269999512,,,,,,,000639,001,,,2023-06-02_17h03.38.764,face_recognition_ERP_protocol,2022.2.5,59.857622647763755,
Celebs/37_Neil_Patrick_Harris_0014.jpg,non_target,0,0,0,0,0,88,88,37,,,,,,,,,,,,,170.3900069000083,170.3900069000083,170.88905810000142,,,,,,,000639,001,,,2023-06-02_17h03.38.764,face_recognition_ERP_protocol,2022.2.5,59.857622647763755,
Celebs/33_Neil_Patrick_Harris_0011.jpg,non_target,0,0,0,0,0,89,89,112,,,,,,,,,,,,,171.39123800001107,171.39123800001107,171.89088029996492,,,,,,,000639,001,,,2023-06-02_17h03.38.764,face_recognition_ERP_protocol,2022.2.5,59.857622647763755,
Celebs/44_Will_Smith_0015.jpg,non_target,0,0,0,0,0,90,90,101,,,,,,,,,,,,,172.39216449996457,172.39216449996457,172.8920127999736,,,,,,,000639,001,,,2023-06-02_17h03.38.764,face_recognition_ERP_protocol,2022.2.5,59.857622647763755,
Celebs/44_Will_Smith_0006.jpg,non_target,0,0,0,0,0,91,91,41,,,,,,,,,,,,,173.39307569997618,173.39307569997618,173.89310659997864,,,,,,,000639,001,,,2023-06-02_17h03.38.764,face_recognition_ERP_protocol,2022.2.5,59.857622647763755,
Celebs/36_Jim_Parsons_0011.jpg,non_target,0,0,0,0,0,92,92,86,,,,,,,,,,,,,174.39473219995853,174.39473219995853,174.8774725999683,,,,,,,000639,001,,,2023-06-02_17h03.38.764,face_recognition_ERP_protocol,2022.2.5,59.857622647763755,
Celebs/34_Neil_Patrick_Harris_0007.jpg,non_target,0,0,0,0,0,93,93,117,,,,,,,,,,,,,175.37888069998007,175.37888069998007,175.87856390001252,,,,,,,000639,001,,,2023-06-02_17h03.38.764,face_recognition_ERP_protocol,2022.2.5,59.857622647763755,
Celebs/22_Emma_Watson_0003.jpg,non_target,0,0,0,0,0,94,94,91,,,,,,,,,,,,,176.37996559997555,176.37996559997555,176.87966629996663,,,,,,,000639,001,,,2023-06-02_17h03.38.764,face_recognition_ERP_protocol,2022.2.5,59.857622647763755,
Celebs/24_Daniel_Radcliffe_0017.jpg,target,0,0,0,0,0,95,95,71,,,,,,,,,,,,,177.38006499997573,177.38006499997573,177.8807369999704,,,,,,,000639,001,,,2023-06-02_17h03.38.764,face_recognition_ERP_protocol,2022.2.5,59.857622647763755,
Celebs/20_Scarlett_Johansson_0011.jpg,non_target,0,0,0,0,0,96,96,109,,,,,,,,,,,,,178.3823090000078,178.3823090000078,178.88185870001325,,,,,,,000639,001,,,2023-06-02_17h03.38.764,face_recognition_ERP_protocol,2022.2.5,59.857622647763755,
Celebs/18_Daniel_Radcliffe_0007.jpg,target,0,0,0,0,0,97,97,81,,,,,,,,,,,,,179.3831441999646,179.3831441999646,179.88293859997066,,,,,,,000639,001,,,2023-06-02_17h03.38.764,face_recognition_ERP_protocol,2022.2.5,59.857622647763755,
Celebs/35_Neil_Patrick_Harris_0009.jpg,non_target,0,0,0,0,0,98,98,87,,,,,,,,,,,,,180.38406819995726,180.38406819995726,180.884030599962,,,,,,,000639,001,,,2023-06-02_17h03.38.764,face_recognition_ERP_protocol,2022.2.5,59.857622647763755,
Celebs/24_Scarlett_Johansson_0001.jpg,non_target,0,0,0,0,0,99,99,10,,,,,,,,,,,,,181.38572560000466,181.38572560000466,181.88517550000688,,,,,,,000639,001,,,2023-06-02_17h03.38.764,face_recognition_ERP_protocol,2022.2.5,59.857622647763755,
Celebs/39_Neil_Patrick_Harris_0010.jpg,non_target,0,0,0,0,0,100,100,94,,,,,,,,,,,,,182.3867448999663,182.3867448999663,182.88623790000565,,,,,,,000639,001,,,2023-06-02_17h03.38.764,face_recognition_ERP_protocol,2022.2.5,59.857622647763755,
Celebs/17_Margot_Robbie_0012.jpg,non_target,0,0,0,0,0,101,101,67,,,,,,,,,,,,,183.38745360000758,183.38745360000758,183.88732669997262,,,,,,,000639,001,,,2023-06-02_17h03.38.764,face_recognition_ERP_protocol,2022.2.5,59.857622647763755,
Celebs/32_Jim_Parsons_0010.jpg,non_target,0,0,0,0,0,102,102,98,,,,,,,,,,,,,184.38898109999718,184.38898109999718,184.88843479997013,,,,,,,000639,001,,,2023-06-02_17h03.38.764,face_recognition_ERP_protocol,2022.2.5,59.857622647763755,
Celebs/52_Jackie_Chan_0002.jpg,non_target,0,0,0,0,0,103,103,68,,,,,,,,,,,,,185.38934970000992,185.38934970000992,185.8895693999948,,,,,,,000639,001,,,2023-06-02_17h03.38.764,face_recognition_ERP_protocol,2022.2.5,59.857622647763755,
Celebs/14_Emma_Watson_0015.jpg,non_target,0,0,0,0,0,104,104,56,,,,,,,,,,,,,186.3908034999622,186.3908034999622,186.89063469995745,,,,,,,000639,001,,,2023-06-02_17h03.38.764,face_recognition_ERP_protocol,2022.2.5,59.857622647763755,
Celebs/48_Johnny_Depp_0005.jpg,non_target,0,0,0,0,0,105,105,54,,,,,,,,,,,,,187.38989109999966,187.38989109999966,187.89169959997525,,,,,,,000639,001,,,2023-06-02_17h03.38.764,face_recognition_ERP_protocol,2022.2.5,59.857622647763755,
Celebs/21_Daniel_Radcliffe_0002.jpg,target,0,0,0,0,0,106,106,60,,,,,,,,,,,,,188.3929172999924,188.3929172999924,188.89280129998224,,,,,,,000639,001,,,2023-06-02_17h03.38.764,face_recognition_ERP_protocol,2022.2.5,59.857622647763755,
Celebs/40_Jim_Parsons_0015.jpg,non_target,0,0,0,0,0,107,107,45,,,,,,,,,,,,,189.39382299996214,189.39382299996214,189.87723390001338,,,,,,,000639,001,,,2023-06-02_17h03.38.764,face_recognition_ERP_protocol,2022.2.5,59.857622647763755,
Celebs/39_Jim_Parsons_0010.jpg,non_target,0,0,0,0,0,108,108,0,,,,,,,,,,,,,190.3783525999752,190.3783525999752,190.87837079999736,,,,,,,000639,001,,,2023-06-02_17h03.38.764,face_recognition_ERP_protocol,2022.2.5,59.857622647763755,
Celebs/16_Emma_Stone_0008.jpg,non_target,0,0,0,0,0,109,109,48,,,,,,,,,,,,,191.37963209999725,191.37963209999725,191.8794386999798,,,,,,,000639,001,,,2023-06-02_17h03.38.764,face_recognition_ERP_protocol,2022.2.5,59.857622647763755,
Celebs/18_Daniel_Radcliffe_0008.jpg,target,0,0,0,0,0,110,110,28,,,,,,,,,,,,,192.38103509997018,192.38103509997018,192.88052060001064,,,,,,,000639,001,,,2023-06-02_17h03.38.764,face_recognition_ERP_protocol,2022.2.5,59.857622647763755,
Celebs/32_Jim_Parsons_0016.jpg,non_target,0,0,0,0,0,111,111,102,,,,,,,,,,,,,193.38204269995913,193.38204269995913,193.88160590000916,,,,,,,000639,001,,,2023-06-02_17h03.38.764,face_recognition_ERP_protocol,2022.2.5,59.857622647763755,
Celebs/29_Scarlett_Johansson_0016.jpg,non_target,0,0,0,0,0,112,112,2,,,,,,,,,,,,,194.3829407999874,194.3829407999874,194.88274189998629,,,,,,,000639,001,,,2023-06-02_17h03.38.764,face_recognition_ERP_protocol,2022.2.5,59.857622647763755,
Celebs/23_Daniel_Radcliffe_0019.jpg,target,0,0,0,0,0,113,113,6,,,,,,,,,,,,,195.38401759997942,195.38401759997942,195.88379809999606,,,,,,,000639,001,,,2023-06-02_17h03.38.764,face_recognition_ERP_protocol,2022.2.5,59.857622647763755,
Celebs/23_Daniel_Radcliffe_0002.jpg,target,0,0,0,0,0,114,114,77,,,,,,,,,,,,,196.3850059999968,196.3850059999968,196.8849637999665,,,,,,,000639,001,,,2023-06-02_17h03.38.764,face_recognition_ERP_protocol,2022.2.5,59.857622647763755,
Celebs/43_Will_Smith_0007.jpg,non_target,0,0,0,0,0,115,115,74,,,,,,,,,,,,,197.38601799996104,197.38601799996104,197.88596139999572,,,,,,,000639,001,,,2023-06-02_17h03.38.764,face_recognition_ERP_protocol,2022.2.5,59.857622647763755,
Celebs/16_Emma_Stone_0012.jpg,non_target,0,0,0,0,0,116,116,70,,,,,,,,,,,,,198.38705729995854,198.38705729995854,198.88707519997843,,,,,,,000639,001,,,2023-06-02_17h03.38.764,face_recognition_ERP_protocol,2022.2.5,59.857622647763755,
Celebs/15_Margot_Robbie_0005.jpg,non_target,0,0,0,0,0,117,117,80,,,,,,,,,,,,,199.38813489995664,199.38813489995664,199.8881956000114,,,,,,,000639,001,,,2023-06-02_17h03.38.764,face_recognition_ERP_protocol,2022.2.5,59.857622647763755,
Celebs/57_Jackie_Chan_0010.jpg,non_target,0,0,0,0,0,118,118,62,,,,,,,,,,,,,200.38928050000686,200.38928050000686,200.88930260000052,,,,,,,000639,001,,,2023-06-02_17h03.38.764,face_recognition_ERP_protocol,2022.2.5,59.857622647763755,
Celebs/40_Will_Smith_0012.jpg,non_target,0,0,0,0,0,119,119,110,,,,,,,,,,,,,201.39065259997733,201.39065259997733,201.89035860000877,,,,,,,000639,001,,,2023-06-02_17h03.38.764,face_recognition_ERP_protocol,2022.2.5,59.857622647763755,
Celebs/45_Will_Smith_0014.jpg,non_target,1,0,1,0,0,0,0,59,,,,,,,,,,,,,212.50217839999823,212.50217839999823,212.96918009995716,202.4035646999837,202.4035646999837,space,10.022649299993645,,,000639,001,,,2023-06-02_17h03.38.764,face_recognition_ERP_protocol,2022.2.5,59.857622647763755,
Celebs/42_Will_Smith_0012.jpg,non_target,1,0,1,0,0,1,1,64,,,,,,,,,,,,,213.47037200001068,213.47037200001068,213.97027069999604,,,,,,,000639,001,,,2023-06-02_17h03.38.764,face_recognition_ERP_protocol,2022.2.5,59.857622647763755,
Celebs/50_Johnny_Depp_0010.jpg,non_target,1,0,1,0,0,2,2,115,,,,,,,,,,,,,214.47124079999048,214.47124079999048,214.9546281999792,,,,,,,000639,001,,,2023-06-02_17h03.38.764,face_recognition_ERP_protocol,2022.2.5,59.857622647763755,
Celebs/50_Jackie_Chan_0012.jpg,non_target,1,0,1,0,0,3,3,43,,,,,,,,,,,,,215.45563119999133,215.45563119999133,215.9557745999773,,,,,,,000639,001,,,2023-06-02_17h03.38.764,face_recognition_ERP_protocol,2022.2.5,59.857622647763755,
Celebs/21_Daniel_Radcliffe_0009.jpg,target,1,0,1,0,0,4,4,83,,,,,,,,,,,,,216.45676169998478,216.45676169998478,216.95685149997007,,,,,,,000639,001,,,2023-06-02_17h03.38.764,face_recognition_ERP_protocol,2022.2.5,59.857622647763755,
Celebs/16_Emma_Stone_0012.jpg,non_target,1,0,1,0,0,5,5,70,,,,,,,,,,,,,217.45904459996382,217.45904459996382,217.95795399998315,,,,,,,000639,001,,,2023-06-02_17h03.38.764,face_recognition_ERP_protocol,2022.2.5,59.857622647763755,
Celebs/33_Neil_Patrick_Harris_0011.jpg,non_target,1,0,1,0,0,6,6,112,,,,,,,,,,,,,218.45913739997195,218.45913739997195,218.95903269998962,,,,,,,000639,001,,,2023-06-02_17h03.38.764,face_recognition_ERP_protocol,2022.2.5,59.857622647763755,
Celebs/24_Emma_Stone_0015.jpg,non_target,1,0,1,0,0,7,7,57,,,,,,,,,,,,,219.46001499996055,219.46001499996055,219.9601775999763,,,,,,,000639,001,,,2023-06-02_17h03.38.764,face_recognition_ERP_protocol,2022.2.5,59.857622647763755,
Celebs/54_Jackie_Chan_0001.jpg,non_target,1,0,1,0,0,8,8,7,,,,,,,,,,,,,220.45961889997125,220.45961889997125,220.96124029997736,,,,,,,000639,001,,,2023-06-02_17h03.38.764,face_recognition_ERP_protocol,2022.2.5,59.857622647763755,
Celebs/28_Scarlett_Johansson_0005.jpg,non_target,1,0,1,0,0,9,9,50,,,,,,,,,,,,,221.46234719996573,221.46234719996573,221.96234329999425,,,,,,,000639,001,,,2023-06-02_17h03.38.764,face_recognition_ERP_protocol,2022.2.5,59.857622647763755,
Celebs/50_Johnny_Depp_0008.jpg,non_target,1,0,1,0,0,10,10,84,,,,,,,,,,,,,222.46475310000824,222.46475310000824,222.96344889997272,,,,,,,000639,001,,,2023-06-02_17h03.38.764,face_recognition_ERP_protocol,2022.2.5,59.857622647763755,
Celebs/44_Will_Smith_0015.jpg,non_target,1,0,1,0,0,11,11,101,,,,,,,,,,,,,223.464609299961,223.464609299961,223.9646330999676,,,,,,,000639,001,,,2023-06-02_17h03.38.764,face_recognition_ERP_protocol,2022.2.5,59.857622647763755,
Celebs/39_Jim_Parsons_0008.jpg,non_target,1,0,1,0,0,12,12,89,,,,,,,,,,,,,224.46606800000882,224.46606800000882,224.96561029995792,,,,,,,000639,001,,,2023-06-02_17h03.38.764,face_recognition_ERP_protocol,2022.2.5,59.857622647763755,
Celebs/16_Emma_Stone_0008.jpg,non_target,1,0,1,0,0,13,13,48,,,,,,,,,,,,,225.46674399997573,225.46674399997573,225.96669729996938,,,,,,,000639,001,,,2023-06-02_17h03.38.764,face_recognition_ERP_protocol,2022.2.5,59.857622647763755,
Celebs/20_Scarlett_Johansson_0011.jpg,non_target,1,0,1,0,0,14,14,109,,,,,,,,,,,,,226.46755800000392,226.46755800000392,226.96781929995632,,,,,,,000639,001,,,2023-06-02_17h03.38.764,face_recognition_ERP_protocol,2022.2.5,59.857622647763755,
Celebs/39_Neil_Patrick_Harris_0010.jpg,non_target,1,0,1,0,0,15,15,94,,,,,,,,,,,,,227.46894519997295,227.46894519997295,227.9689182000002,,,,,,,000639,001,,,2023-06-02_17h03.38.764,face_recognition_ERP_protocol,2022.2.5,59.857622647763755,
Celebs/39_Jim_Parsons_0001.jpg,non_target,1,0,1,0,0,16,16,49,,,,,,,,,,,,,228.47005720000016,228.47005720000016,228.97005539998645,,,,,,,000639,001,,,2023-06-02_17h03.38.764,face_recognition_ERP_protocol,2022.2.5,59.857622647763755,
Celebs/32_Jim_Parsons_0010.jpg,non_target,1,0,1,0,0,17,17,98,,,,,,,,,,,,,229.47088799998164,229.47088799998164,229.97115419997135,,,,,,,000639,001,,,2023-06-02_17h03.38.764,face_recognition_ERP_protocol,2022.2.5,59.857622647763755,
Celebs/47_Johnny_Depp_0004.jpg,non_target,1,0,1,0,0,18,18,76,,,,,,,,,,,,,230.45554339996306,230.45554339996306,230.95568000001367,,,,,,,000639,001,,,2023-06-02_17h03.38.764,face_recognition_ERP_protocol,2022.2.5,59.857622647763755,
Celebs/14_Emma_Watson_0015.jpg,non_target,1,0,1,0,0,19,19,56,,,,,,,,,,,,,231.456451200007,231.456451200007,231.9566850999836,,,,,,,000639,001,,,2023-06-02_17h03.38.764,face_recognition_ERP_protocol,2022.2.5,59.857622647763755,
Celebs/38_Neil_Patrick_Harris_0006.jpg,non_target,1,0,1,0,0,20,20,31,,,,,,,,,,,,,232.4576812000014,232.4576812000014,232.9577023999882,,,,,,,000639,001,,,2023-06-02_17h03.38.764,face_recognition_ERP_protocol,2022.2.5,59.857622647763755,
Celebs/34_Neil_Patrick_Harris_0007.jpg,non_target,1,0,1,0,0,21,21,117,,,,,,,,,,,,,233.4588969000033,233.4588969000033,233.95900410000468,,,,,,,000639,001,,,2023-06-02_17h03.38.764,face_recognition_ERP_protocol,2022.2.5,59.857622647763755,
Celebs/27_Scarlett_Johansson_0012.jpg,non_target,1,0,1,0,0,22,22,78,,,,,,,,,,,,,234.4596484999638,234.4596484999638,234.95989190001274,,,,,,,000639,001,,,2023-06-02_17h03.38.764,face_recognition_ERP_protocol,2022.2.5,59.857622647763755,
Celebs/32_Jim_Parsons_0016.jpg,non_target,1,0,1,0,0,23,23,102,,,,,,,,,,,,,235.46109980001347,235.46109980001347,235.9610197999864,,,,,,,000639,001,,,2023-06-02_17h03.38.764,face_recognition_ERP_protocol,2022.2.5,59.857622647763755,
Celebs/38_Jim_Parsons_0003.jpg,non_target,1,0,1,0,0,24,24,53,,,,,,,,,,,,,236.46221059997333,236.46221059997333,236.96208319999278,,,,,,,000639,001,,,2023-06-02_17h03.38.764,face_recognition_ERP_protocol,2022.2.5,59.857622647763755,
Celebs/16_Emma_Stone_0014.jpg,non_target,1,0,1,0,0,25,25,40,,,,,,,,,,,,,237.46352200000547,237.46352200000547,237.96315639995737,,,,,,,000639,001,,,2023-06-02_17h03.38.764,face_recognition_ERP_protocol,2022.2.5,59.857622647763755,
Celebs/23_Daniel_Radcliffe_0010.jpg,target,1,0,1,0,0,26,26,15,,,,,,,,,,,,,238.4641919999849,238.4641919999849,238.96429169998737,,,,,,,000639,001,,,2023-06-02_17h03.38.764,face_recognition_ERP_protocol,2022.2.5,59.857622647763755,
Celebs/23_Daniel_Radcliffe_0002.jpg,target,1,0,1,0,0,27,27,77,,,,,,,,,,,,,239.46528629999375,239.46528629999375,239.9653576000128,,,,,,,000639,001,,,2023-06-02_17h03.38.764,face_recognition_ERP_protocol,2022.2.5,59.857622647763755,
Celebs/48_Johnny_Depp_0001.jpg,non_target,1,0,1,0,0,28,28,106,,,,,,,,,,,,,240.46648469998036,240.46648469998036,240.96641799999634,,,,,,,000639,001,,,2023-06-02_17h03.38.764,face_recognition_ERP_protocol,2022.2.5,59.857622647763755,
Celebs/58_Jackie_Chan_0005.jpg,non_target,1,0,1,0,0,29,29,3,,,,,,,,,,,,,241.46754300000612,241.46754300000612,241.96755509998184,,,,,,,000639,001,,,2023-06-02_17h03.38.764,face_recognition_ERP_protocol,2022.2.5,59.857622647763755,
Celebs/55_Jackie_Chan_0015.jpg,non_target,1,0,1,0,0,30,30,30,,,,,,,,,,,,,242.4685556999757,242.4685556999757,242.9686552999774,,,,,,,000639,001,,,2023-06-02_17h03.38.764,face_recognition_ERP_protocol,2022.2.5,59.857622647763755,
Celebs/21_Emma_Stone_0003.jpg,non_target,1,0,1,0,0,31,31,25,,,,,,,,,,,,,243.4697152999579,243.4697152999579,243.96972960000858,,,,,,,000639,001,,,2023-06-02_17h03.38.764,face_recognition_ERP_protocol,2022.2.5,59.857622647763755,
Celebs/17_Emma_Watson_0006.jpg,non_target,1,0,1,0,0,32,32,90,,,,,,,,,,,,,244.47085220000008,244.47085220000008,244.97091490001185,,,,,,,000639,001,,,2023-06-02_17h03.38.764,face_recognition_ERP_protocol,2022.2.5,59.857622647763755,
Celebs/39_Jim_Parsons_0004.jpg,non_target,1,0,1,0,0,33,33,88,,,,,,,,,,,,,245.4547947999672,245.4547947999672,245.95527199999196,,,,,,,000639,001,,,2023-06-02_17h03.38.764,face_recognition_ERP_protocol,2022.2.5,59.857622647763755,
Celebs/21_Emma_Stone_0002.jpg,non_target,1,0,1,0,0,34,34,103,,,,,,,,,,,,,246.45683879998978,246.45683879998978,246.9563652999932,,,,,,,000639,001,,,2023-06-02_17h03.38.764,face_recognition_ERP_protocol,2022.2.5,59.857622647763755,
Celebs/21_Daniel_Radcliffe_0012.jpg,target,1,0,1,0,0,35,35,8,,,,,,,,,,,,,247.45768230000976,247.45768230000976,247.95748989999993,,,,,,,000639,001,,,2023-06-02_17h03.38.764,face_recognition_ERP_protocol,2022.2.5,59.857622647763755,
Celebs/14_Emma_Watson_0013.jpg,non_target,1,0,1,0,0,36,36,20,,,,,,,,,,,,,248.45884659996955,248.45884659996955,248.95850489998702,,,,,,,000639,001,,,2023-06-02_17h03.38.764,face_recognition_ERP_protocol,2022.2.5,59.857622647763755,
Celebs/31_Neil_Patrick_Harris_0008.jpg,non_target,1,0,1,0,0,37,37,99,,,,,,,,,,,,,249.45947150001302,249.45947150001302,249.95961399999214,,,,,,,000639,001,,,2023-06-02_17h03.38.764,face_recognition_ERP_protocol,2022.2.5,59.857622647763755,
Celebs/21_Margot_Robbie_0003.jpg,non_target,1,0,1,0,0,38,38,27,,,,,,,,,,,,,250.46069489995716,250.46069489995716,250.96074509999016,,,,,,,000639,001,,,2023-06-02_17h03.38.764,face_recognition_ERP_protocol,2022.2.5,59.857622647763755,
Celebs/24_Scarlett_Johansson_0001.jpg,non_target,1,0,1,0,0,39,39,10,,,,,,,,,,,,,251.46178049995797,251.46178049995797,251.96188499999698,,,,,,,000639,001,,,2023-06-02_17h03.38.764,face_recognition_ERP_protocol,2022.2.5,59.857622647763755,
Celebs/18_Daniel_Radcliffe_0008.jpg,target,1,0,1,0,0,40,40,28,,,,,,,,,,,,,252.46283829997992,252.46283829997992,252.96299989998806,,,,,,,000639,001,,,2023-06-02_17h03.38.764,face_recognition_ERP_protocol,2022.2.5,59.857622647763755,
Celebs/45_Johnny_Depp_0003.jpg,non_target,1,0,1,0,0,41,41,108,,,,,,,,,,,,,253.46522099996218,253.46522099996218,253.9640408999985,,,,,,,000639,001,,,2023-06-02_17h03.38.764,face_recognition_ERP_protocol,2022.2.5,59.857622647763755,
Celebs/48_Johnny_Depp_0005.jpg,non_target,1,0,1,0,0,42,42,54,,,,,,,,,,,,,254.46540719998302,254.46540719998302,254.9650607999647,,,,,,,000639,001,,,2023-06-02_17h03.38.764,face_recognition_ERP_protocol,2022.2.5,59.857622647763755,
Celebs/21_Scarlett_Johansson_0007.jpg,non_target,1,0,1,0,0,43,43,118,,,,,,,,,,,,,255.46630949998507,255.46630949998507,255.9661683999584,,,,,,,000639,001,,,2023-06-02_17h03.38.764,face_recognition_ERP_protocol,2022.2.5,59.857622647763755,
Celebs/14_Emma_Watson_0008.jpg,non_target,1,0,1,0,0,44,44,36,,,,,,,,,,,,,256.4672933999682,256.4672933999682,256.96763599995757,,,,,,,000639,001,,,2023-06-02_17h03.38.764,face_recognition_ERP_protocol,2022.2.5,59.857622647763755,
Celebs/21_Daniel_Radcliffe_0002.jpg,target,1,0,1,0,0,45,45,60,,,,,,,,,,,,,257.4683753999998,257.4683753999998,257.96835449995706,,,,,,,000639,001,,,2023-06-02_17h03.38.764,face_recognition_ERP_protocol,2022.2.5,59.857622647763755,
Celebs/20_Margot_Robbie_0004.jpg,non_target,1,0,1,0,0,46,46,116,,,,,,,,,,,,,258.46965310000814,258.46965310000814,258.9695025999681,,,,,,,000639,001,,,2023-06-02_17h03.38.764,face_recognition_ERP_protocol,2022.2.5,59.857622647763755,
Celebs/37_Neil_Patrick_Harris_0010.jpg,non_target,1,0,1,0,0,47,47,93,,,,,,,,,,,,,259.47071979998145,259.47071979998145,259.9705486999592,,,,,,,000639,001,,,2023-06-02_17h03.38.764,face_recognition_ERP_protocol,2022.2.5,59.857622647763755,
Celebs/52_Jackie_Chan_0002.jpg,non_target,1,0,1,0,0,48,48,68,,,,,,,,,,,,,260.47167060000356,260.47167060000356,260.9549968999927,,,,,,,000639,001,,,2023-06-02_17h03.38.764,face_recognition_ERP_protocol,2022.2.5,59.857622647763755,
Celebs/40_Jim_Parsons_0015.jpg,non_target,1,0,1,0,0,49,49,45,,,,,,,,,,,,,261.45615789998556,261.45615789998556,261.95612689998234,,,,,,,000639,001,,,2023-06-02_17h03.38.764,face_recognition_ERP_protocol,2022.2.5,59.857622647763755,
Celebs/39_Jim_Parsons_0010.jpg,non_target,1,0,1,0,0,50,50,0,,,,,,,,,,,,,262.45729920000304,262.45729920000304,262.9571924000047,,,,,,,000639,001,,,2023-06-02_17h03.38.764,face_recognition_ERP_protocol,2022.2.5,59.857622647763755,
Celebs/22_Emma_Watson_0003.jpg,non_target,1,0,1,0,0,51,51,91,,,,,,,,,,,,,263.4581509999698,263.4581509999698,263.9582686999929,,,,,,,000639,001,,,2023-06-02_17h03.38.764,face_recognition_ERP_protocol,2022.2.5,59.857622647763755,
Celebs/22_Emma_Watson_0010.jpg,non_target,1,0,1,0,0,52,52,11,,,,,,,,,,,,,264.45916789997136,264.45916789997136,264.95935089996783,,,,,,,000639,001,,,2023-06-02_17h03.38.764,face_recognition_ERP_protocol,2022.2.5,59.857622647763755,
Celebs/16_Margot_Robbie_0009.jpg,non_target,1,0,1,0,0,53,53,107,,,,,,,,,,,,,265.46040260000154,265.46040260000154,265.96043390000705,,,,,,,000639,001,,,2023-06-02_17h03.38.764,face_recognition_ERP_protocol,2022.2.5,59.857622647763755,
Celebs/18_Daniel_Radcliffe_0007.jpg,target,1,0,1,0,0,54,54,81,,,,,,,,,,,,,266.4621982999961,266.4621982999961,266.9616326999967,,,,,,,000639,001,,,2023-06-02_17h03.38.764,face_recognition_ERP_protocol,2022.2.5,59.857622647763755,
Celebs/43_Will_Smith_0007.jpg,non_target,1,0,1,0,0,55,55,74,,,,,,,,,,,,,267.46237999998266,267.46237999998266,267.96263669995824,,,,,,,000639,001,,,2023-06-02_17h03.38.764,face_recognition_ERP_protocol,2022.2.5,59.857622647763755,
Celebs/40_Jim_Parsons_0004.jpg,non_target,1,0,1,0,0,56,56,73,,,,,,,,,,,,,268.4635938999709,268.4635938999709,268.9637311999686,,,,,,,000639,001,,,2023-06-02_17h03.38.764,face_recognition_ERP_protocol,2022.2.5,59.857622647763755,
Celebs/23_Emma_Stone_0014.jpg,non_target,1,0,1,0,0,57,57,12,,,,,,,,,,,,,269.4647269999841,269.4647269999841,269.9646662999876,,,,,,,000639,001,,,2023-06-02_17h03.38.764,face_recognition_ERP_protocol,2022.2.5,59.857622647763755,
Celebs/24_Daniel_Radcliffe_0017.jpg,target,1,0,1,0,0,58,58,71,,,,,,,,,,,,,270.4662529999623,270.4662529999623,270.9674529999611,,,,,,,000639,001,,,2023-06-02_17h03.38.764,face_recognition_ERP_protocol,2022.2.5,59.857622647763755,
Celebs/18_Daniel_Radcliffe_0002.jpg,target,1,0,1,0,0,59,59,119,,,,,,,,,,,,,271.4670458000037,271.4670458000037,271.96709369996097,,,,,,,000639,001,,,2023-06-02_17h03.38.764,face_recognition_ERP_protocol,2022.2.5,59.857622647763755,
Celebs/20_Emma_Stone_0005.jpg,non_target,1,0,1,0,0,60,60,63,,,,,,,,,,,,,272.4682642999687,272.4682642999687,272.9681639999617,,,,,,,000639,001,,,2023-06-02_17h03.38.764,face_recognition_ERP_protocol,2022.2.5,59.857622647763755,
Celebs/18_Emma_Watson_0004.jpg,non_target,1,0,1,0,0,61,61,75,,,,,,,,,,,,,273.4691257000086,273.4691257000086,273.9692591999774,,,,,,,000639,001,,,2023-06-02_17h03.38.764,face_recognition_ERP_protocol,2022.2.5,59.857622647763755,
Celebs/24_Scarlett_Johansson_0011.jpg,non_target,1,0,1,0,0,62,62,100,,,,,,,,,,,,,274.469351799984,274.469351799984,274.97032500000205,,,,,,,000639,001,,,2023-06-02_17h03.38.764,face_recognition_ERP_protocol,2022.2.5,59.857622647763755,
Celebs/17_Margot_Robbie_0006.jpg,non_target,1,0,1,0,0,63,63,17,,,,,,,,,,,,,275.47126079996815,275.47126079996815,275.9546977999853,,,,,,,000639,001,,,2023-06-02_17h03.38.764,face_recognition_ERP_protocol,2022.2.5,59.857622647763755,
Celebs/22_Emma_Stone_0013.jpg,non_target,1,0,1,0,0,64,64,1,,,,,,,,,,,,,276.4561398999649,276.4561398999649,276.955859699985,,,,,,,000639,001,,,2023-06-02_17h03.38.764,face_recognition_ERP_protocol,2022.2.5,59.857622647763755,
Celebs/45_Will_Smith_0010.jpg,non_target,1,0,1,0,0,65,65,69,,,,,,,,,,,,,277.45689599995967,277.45689599995967,277.9569921999937,,,,,,,000639,001,,,2023-06-02_17h03.38.764,face_recognition_ERP_protocol,2022.2.5,59.857622647763755,
Celebs/16_Emma_Stone_0010.jpg,non_target,1,0,1,0,0,66,66,95,,,,,,,,,,,,,278.4579908999731,278.4579908999731,278.9580111000105,,,,,,,000639,001,,,2023-06-02_17h03.38.764,face_recognition_ERP_protocol,2022.2.5,59.857622647763755,
Celebs/43_Will_Smith_0006.jpg,non_target,1,0,1,0,0,67,67,61,,,,,,,,,,,,,279.45897849998437,279.45897849998437,279.95911669998895,,,,,,,000639,001,,,2023-06-02_17h03.38.764,face_recognition_ERP_protocol,2022.2.5,59.857622647763755,
Celebs/20_Margot_Robbie_0006.jpg,non_target,1,0,1,0,0,68,68,35,,,,,,,,,,,,,280.4604188000085,280.4604188000085,280.9602134999586,,,,,,,000639,001,,,2023-06-02_17h03.38.764,face_recognition_ERP_protocol,2022.2.5,59.857622647763755,
Celebs/15_Margot_Robbie_0012.jpg,non_target,1,0,1,0,0,69,69,82,,,,,,,,,,,,,281.4614262999967,281.4614262999967,281.96133989997907,,,,,,,000639,001,,,2023-06-02_17h03.38.764,face_recognition_ERP_protocol,2022.2.5,59.857622647763755,
Celebs/49_Johnny_Depp_0013.jpg,non_target,1,0,1,0,0,70,70,33,,,,,,,,,,,,,282.4624408999807,282.4624408999807,282.9624511000002,,,,,,,000639,001,,,2023-06-02_17h03.38.764,face_recognition_ERP_protocol,2022.2.5,59.857622647763755,
Celebs/22_Emma_Watson_0001.jpg,non_target,1,0,1,0,0,71,71,58,,,,,,,,,,,,,283.463418099971,283.463418099971,283.9635484999744,,,,,,,000639,001,,,2023-06-02_17h03.38.764,face_recognition_ERP_protocol,2022.2.5,59.857622647763755,
Celebs/43_Will_Smith_0010.jpg,non_target,1,0,1,0,0,72,72,22,,,,,,,,,,,,,284.46447549998993,284.46447549998993,284.96465579996584,,,,,,,000639,001,,,2023-06-02_17h03.38.764,face_recognition_ERP_protocol,2022.2.5,59.857622647763755,
Celebs/15_Margot_Robbie_0005.jpg,non_target,1,0,1,0,0,73,73,80,,,,,,,,,,,,,285.4656940999557,285.4656940999557,285.96569839998847,,,,,,,000639,001,,,2023-06-02_17h03.38.764,face_recognition_ERP_protocol,2022.2.5,59.857622647763755,
Celebs/57_Jackie_Chan_0008.jpg,non_target,1,0,1,0,0,74,74,72,,,,,,,,,,,,,286.46616229997016,286.46616229997016,286.9668144999887,,,,,,,000639,001,,,2023-06-02_17h03.38.764,face_recognition_ERP_protocol,2022.2.5,59.857622647763755,
Celebs/22_Scarlett_Johansson_0005.jpg,non_target,1,0,1,0,0,75,75,44,,,,,,,,,,,,,287.4679870000109,287.4679870000109,287.9678552999976,,,,,,,000639,001,,,2023-06-02_17h03.38.764,face_recognition_ERP_protocol,2022.2.5,59.857622647763755,
Celebs/44_Will_Smith_0006.jpg,non_target,1,0,1,0,0,76,76,41,,,,,,,,,,,,,288.4690502999583,288.4690502999583,288.96904429997085,,,,,,,000639,001,,,2023-06-02_17h03.38.764,face_recognition_ERP_protocol,2022.2.5,59.857622647763755,
Celebs/25_Scarlett_Johansson_0010.jpg,non_target,1,0,1,0,0,77,77,32,,,,,,,,,,,,,289.47021269996185,289.47021269996185,289.97005619999254,,,,,,,000639,001,,,2023-06-02_17h03.38.764,face_recognition_ERP_protocol,2022.2.5,59.857622647763755,
Celebs/19_Emma_Stone_0006.jpg,non_target,1,0,1,0,0,78,78,66,,,,,,,,,,,,,290.4710782999755,290.4710782999755,290.97114949999377,,,,,,,000639,001,,,2023-06-02_17h03.38.764,face_recognition_ERP_protocol,2022.2.5,59.857622647763755,
Celebs/39_Neil_Patrick_Harris_0001.jpg,non_target,1,0,1,0,0,79,79,4,,,,,,,,,,,,,291.4555129999644,291.4555129999644,291.95555459999014,,,,,,,000639,001,,,2023-06-02_17h03.38.764,face_recognition_ERP_protocol,2022.2.5,59.857622647763755,
Celebs/21_Emma_Watson_0004.jpg,non_target,1,0,1,0,0,80,80,21,,,,,,,,,,,,,292.4565620999783,292.4565620999783,292.9566324999905,,,,,,,000639,001,,,2023-06-02_17h03.38.764,face_recognition_ERP_protocol,2022.2.5,59.857622647763755,
Celebs/26_Scarlett_Johansson_0003.jpg,non_target,1,0,1,0,0,81,81,105,,,,,,,,,,,,,293.4578948999988,293.4578948999988,293.9577408999903,,,,,,,000639,001,,,2023-06-02_17h03.38.764,face_recognition_ERP_protocol,2022.2.5,59.857622647763755,
Celebs/38_Will_Smith_0013.jpg,non_target,1,0,1,0,0,82,82,13,,,,,,,,,,,,,294.45876720000524,294.45876720000524,294.95884809998097,,,,,,,000639,001,,,2023-06-02_17h03.38.764,face_recognition_ERP_protocol,2022.2.5,59.857622647763755,
Celebs/37_Will_Smith_0015.jpg,non_target,1,0,1,0,0,83,83,113,,,,,,,,,,,,,295.45987989997957,295.45987989997957,295.9599287000019,,,,,,,000639,001,,,2023-06-02_17h03.38.764,face_recognition_ERP_protocol,2022.2.5,59.857622647763755,
Celebs/40_Will_Smith_0012.jpg,non_target,1,0,1,0,0,84,84,110,,,,,,,,,,,,,296.4613247999805,296.4613247999805,296.96105839998927,,,,,,,000639,001,,,2023-06-02_17h03.38.764,face_recognition_ERP_protocol,2022.2.5,59.857622647763755,
Celebs/14_Emma_Watson_0005.jpg,non_target,1,0,1,0,0,85,85,26,,,,,,,,,,,,,297.4623084999621,297.4623084999621,297.9621417999733,,,,,,,000639,001,,,2023-06-02_17h03.38.764,face_recognition_ERP_protocol,2022.2.5,59.857622647763755,
Celebs/26_Scarlett_Johansson_0008.jpg,non_target,1,0,1,0,0,86,86,47,,,,,,,,,,,,,298.4630349999643,298.4630349999643,298.9632044999744,,,,,,,000639,001,,,2023-06-02_17h03.38.764,face_recognition_ERP_protocol,2022.2.5,59.857622647763755,
Celebs/36_Jim_Parsons_0011.jpg,non_target,1,0,1,0,0,87,87,86,,,,,,,,,,,,,299.4642115999595,299.4642115999595,299.96437319996767,,,,,,,000639,001,,,2023-06-02_17h03.38.764,face_recognition_ERP_protocol,2022.2.5,59.857622647763755,
Celebs/34_Neil_Patrick_Harris_0004.jpg,non_target,1,0,1,0,0,88,88,104,,,,,,,,,,,,,300.4659582999884,300.4659582999884,300.9652284999611,,,,,,,000639,001,,,2023-06-02_17h03.38.764,face_recognition_ERP_protocol,2022.2.5,59.857622647763755,
Celebs/57_Jackie_Chan_0010.jpg,non_target,1,0,1,0,0,89,89,62,,,,,,,,,,,,,301.466617099999,301.466617099999,301.96658609999577,,,,,,,000639,001,,,2023-06-02_17h03.38.764,face_recognition_ERP_protocol,2022.2.5,59.857622647763755,
Celebs/22_Margot_Robbie_0010.jpg,non_target,1,0,1,0,0,90,90,18,,,,,,,,,,,,,302.4676407999941,302.4676407999941,302.96768830000656,,,,,,,000639,001,,,2023-06-02_17h03.38.764,face_recognition_ERP_protocol,2022.2.5,59.857622647763755,
Celebs/23_Daniel_Radcliffe_0019.jpg,target,1,0,1,0,0,91,91,6,,,,,,,,,,,,,303.46880079997936,303.46880079997936,303.96876660001,,,,,,,000639,001,,,2023-06-02_17h03.38.764,face_recognition_ERP_protocol,2022.2.5,59.857622647763755,
Celebs/19_Margot_Robbie_0004.jpg,non_target,1,0,1,0,0,92,92,42,,,,,,,,,,,,,304.46995840000454,304.46995840000454,304.96978479996324,,,,,,,000639,001,,,2023-06-02_17h03.38.764,face_recognition_ERP_protocol,2022.2.5,59.857622647763755,
Celebs/17_Margot_Robbie_0012.jpg,non_target,1,0,1,0,0,93,93,67,,,,,,,,,,,,,305.47085280000465,305.47085280000465,305.970928499999,,,,,,,000639,001,,,2023-06-02_17h03.38.764,face_recognition_ERP_protocol,2022.2.5,59.857622647763755,
Celebs/14_Emma_Watson_0004.jpg,non_target,1,0,1,0,0,94,94,14,,,,,,,,,,,,,306.4553143999656,306.4553143999656,306.9553998999763,,,,,,,000639,001,,,2023-06-02_17h03.38.764,face_recognition_ERP_protocol,2022.2.5,59.857622647763755,
Celebs/18_Emma_Stone_0016.jpg,non_target,1,0,1,0,0,95,95,52,,,,,,,,,,,,,307.45648669998627,307.45648669998627,307.9564006999717,,,,,,,000639,001,,,2023-06-02_17h03.38.764,face_recognition_ERP_protocol,2022.2.5,59.857622647763755,
Celebs/29_Scarlett_Johansson_0010.jpg,non_target,1,0,1,0,0,96,96,85,,,,,,,,,,,,,308.45793480001157,308.45793480001157,308.957496499992,,,,,,,000639,001,,,2023-06-02_17h03.38.764,face_recognition_ERP_protocol,2022.2.5,59.857622647763755,
Celebs/36_Neil_Patrick_Harris_0010.jpg,non_target,1,0,1,0,0,97,97,79,,,,,,,,,,,,,309.4585311000119,309.4585311000119,309.95857729995623,,,,,,,000639,001,,,2023-06-02_17h03.38.764,face_recognition_ERP_protocol,2022.2.5,59.857622647763755,
Celebs/47_Johnny_Depp_0003.jpg,non_target,1,0,1,0,0,98,98,9,,,,,,,,,,,,,310.46042039996246,310.46042039996246,310.9597989000031,,,,,,,000639,001,,,2023-06-02_17h03.38.764,face_recognition_ERP_protocol,2022.2.5,59.857622647763755,
Celebs/48_Johnny_Depp_0003.jpg,non_target,1,0,1,0,0,99,99,55,,,,,,,,,,,,,311.46096709999256,311.46096709999256,311.9607350999722,,,,,,,000639,001,,,2023-06-02_17h03.38.764,face_recognition_ERP_protocol,2022.2.5,59.857622647763755,
Celebs/55_Jackie_Chan_0008.jpg,non_target,1,0,1,0,0,100,100,92,,,,,,,,,,,,,312.4618207999738,312.4618207999738,312.96186209999723,,,,,,,000639,001,,,2023-06-02_17h03.38.764,face_recognition_ERP_protocol,2022.2.5,59.857622647763755,
Celebs/50_Jackie_Chan_0014.jpg,non_target,1,0,1,0,0,101,101,38,,,,,,,,,,,,,313.4632411999628,313.4632411999628,313.9629497999558,,,,,,,000639,001,,,2023-06-02_17h03.38.764,face_recognition_ERP_protocol,2022.2.5,59.857622647763755,
Celebs/54_Jackie_Chan_0014.jpg,non_target,1,0,1,0,0,102,102,111,,,,,,,,,,,,,314.4642150999862,314.4642150999862,314.96414970001206,,,,,,,000639,001,,,2023-06-02_17h03.38.764,face_recognition_ERP_protocol,2022.2.5,59.857622647763755,
Celebs/50_Johnny_Depp_0004.jpg,non_target,1,0,1,0,0,103,103,39,,,,,,,,,,,,,315.4652885000105,315.4652885000105,315.965154799982,,,,,,,000639,001,,,2023-06-02_17h03.38.764,face_recognition_ERP_protocol,2022.2.5,59.857622647763755,
Celebs/37_Neil_Patrick_Harris_0014.jpg,non_target,1,0,1,0,0,104,104,37,,,,,,,,,,,,,316.46630959998583,316.46630959998583,316.96624249999877,,,,,,,000639,001,,,2023-06-02_17h03.38.764,face_recognition_ERP_protocol,2022.2.5,59.857622647763755,
Celebs/20_Emma_Watson_0007.jpg,non_target,1,0,1,0,0,105,105,96,,,,,,,,,,,,,317.46812889998546,317.46812889998546,317.9673996999627,,,,,,,000639,001,,,2023-06-02_17h03.38.764,face_recognition_ERP_protocol,2022.2.5,59.857622647763755,
Celebs/17_Daniel_Radcliffe_0007.jpg,target,1,0,1,0,0,106,106,19,,,,,,,,,,,,,318.46836249995977,318.46836249995977,318.96851779997814,,,,,,,000639,001,,,2023-06-02_17h03.38.764,face_recognition_ERP_protocol,2022.2.5,59.857622647763755,
Celebs/32_Jim_Parsons_0018.jpg,non_target,1,0,1,0,0,107,107,46,,,,,,,,,,,,,319.4700210999581,319.4700210999581,319.96952939999755,,,,,,,000639,001,,,2023-06-02_17h03.38.764,face_recognition_ERP_protocol,2022.2.5,59.857622647763755,
Celebs/47_Johnny_Depp_0009.jpg,non_target,1,0,1,0,0,108,108,23,,,,,,,,,,,,,320.470516100002,320.470516100002,320.9705900999834,,,,,,,000639,001,,,2023-06-02_17h03.38.764,face_recognition_ERP_protocol,2022.2.5,59.857622647763755,
Celebs/17_Margot_Robbie_0014.jpg,non_target,1,0,1,0,0,109,109,114,,,,,,,,,,,,,321.471790599986,321.471790599986,321.9550335999811,,,,,,,000639,001,,,2023-06-02_17h03.38.764,face_recognition_ERP_protocol,2022.2.5,59.857622647763755,
Celebs/44_Will_Smith_0007.jpg,non_target,1,0,1,0,0,110,110,65,,,,,,,,,,,,,322.45648990001064,322.45648990001064,322.95619930000976,,,,,,,000639,001,,,2023-06-02_17h03.38.764,face_recognition_ERP_protocol,2022.2.5,59.857622647763755,
Celebs/36_Neil_Patrick_Harris_0007.jpg,non_target,1,0,1,0,0,111,111,5,,,,,,,,,,,,,323.4579972999636,323.4579972999636,323.95720269996673,,,,,,,000639,001,,,2023-06-02_17h03.38.764,face_recognition_ERP_protocol,2022.2.5,59.857622647763755,
Celebs/50_Johnny_Depp_0018.jpg,non_target,1,0,1,0,0,112,112,24,,,,,,,,,,,,,324.45836200000485,324.45836200000485,324.9583229999989,,,,,,,000639,001,,,2023-06-02_17h03.38.764,face_recognition_ERP_protocol,2022.2.5,59.857622647763755,
Celebs/19_Margot_Robbie_0001.jpg,non_target,1,0,1,0,0,113,113,51,,,,,,,,,,,,,325.45946320000803,325.45946320000803,325.95949889998883,,,,,,,000639,001,,,2023-06-02_17h03.38.764,face_recognition_ERP_protocol,2022.2.5,59.857622647763755,
Celebs/55_Jackie_Chan_0003.jpg,non_target,1,0,1,0,0,114,114,29,,,,,,,,,,,,,326.4607669999823,326.4607669999823,326.960525100003,,,,,,,000639,001,,,2023-06-02_17h03.38.764,face_recognition_ERP_protocol,2022.2.5,59.857622647763755,
Celebs/51_Jackie_Chan_0006.jpg,non_target,1,0,1,0,0,115,115,97,,,,,,,,,,,,,327.46176350000314,327.46176350000314,327.9616049999604,,,,,,,000639,001,,,2023-06-02_17h03.38.764,face_recognition_ERP_protocol,2022.2.5,59.857622647763755,
Celebs/29_Scarlett_Johansson_0016.jpg,non_target,1,0,1,0,0,116,116,2,,,,,,,,,,,,,328.4625413999893,328.4625413999893,328.96271769999294,,,,,,,000639,001,,,2023-06-02_17h03.38.764,face_recognition_ERP_protocol,2022.2.5,59.857622647763755,
Celebs/33_Jim_Parsons_0011.jpg,non_target,1,0,1,0,0,117,117,34,,,,,,,,,,,,,329.46419729996705,329.46419729996705,329.96381310001016,,,,,,,000639,001,,,2023-06-02_17h03.38.764,face_recognition_ERP_protocol,2022.2.5,59.857622647763755,
Celebs/21_Daniel_Radcliffe_0008.jpg,target,1,0,1,0,0,118,118,16,,,,,,,,,,,,,330.4654470999958,330.4654470999958,330.96634709998034,,,,,,,000639,001,,,2023-06-02_17h03.38.764,face_recognition_ERP_protocol,2022.2.5,59.857622647763755,
Celebs/35_Neil_Patrick_Harris_0009.jpg,non_target,1,0,1,0,0,119,119,87,,,,,,,,,,,,,331.466083999956,331.466083999956,331.96605889999773,,,,,,,000639,001,,,2023-06-02_17h03.38.764,face_recognition_ERP_protocol,2022.2.5,59.857622647763755,
Celebs/42_Will_Smith_0012.jpg,non_target,2,0,2,0,0,0,0,64,,,,,,,,,,,,,356.00801489996957,356.00801489996957,356.47611009998946,332.46673079999164,332.46673079999164,space,23.472508100036066,,,000639,001,,,2023-06-02_17h03.38.764,face_recognition_ERP_protocol,2022.2.5,59.857622647763755,
Celebs/21_Daniel_Radcliffe_0012.jpg,target,2,0,2,0,0,1,1,8,,,,,,,,,,,,,356.97760419995757,356.97760419995757,357.47721749998163,,,,,,,000639,001,,,2023-06-02_17h03.38.764,face_recognition_ERP_protocol,2022.2.5,59.857622647763755,
Celebs/22_Scarlett_Johansson_0005.jpg,non_target,2,0,2,0,0,2,2,44,,,,,,,,,,,,,357.9785267999978,357.9785267999978,358.4783238999662,,,,,,,000639,001,,,2023-06-02_17h03.38.764,face_recognition_ERP_protocol,2022.2.5,59.857622647763755,
Celebs/50_Johnny_Depp_0018.jpg,non_target,2,0,2,0,0,3,3,24,,,,,,,,,,,,,358.9626162999775,358.9626162999775,359.46270549995825,,,,,,,000639,001,,,2023-06-02_17h03.38.764,face_recognition_ERP_protocol,2022.2.5,59.857622647763755,
Celebs/39_Jim_Parsons_0004.jpg,non_target,2,0,2,0,0,4,4,88,,,,,,,,,,,,,359.9643288999796,359.9643288999796,360.46386329998495,,,,,,,000639,001,,,2023-06-02_17h03.38.764,face_recognition_ERP_protocol,2022.2.5,59.857622647763755,
Celebs/22_Margot_Robbie_0010.jpg,non_target,2,0,2,0,0,5,5,18,,,,,,,,,,,,,360.9644498999696,360.9644498999696,361.46493049996207,,,,,,,000639,001,,,2023-06-02_17h03.38.764,face_recognition_ERP_protocol,2022.2.5,59.857622647763755,
Celebs/57_Jackie_Chan_0010.jpg,non_target,2,0,2,0,0,6,6,62,,,,,,,,,,,,,361.96620580001036,361.96620580001036,362.46602190000704,,,,,,,000639,001,,,2023-06-02_17h03.38.764,face_recognition_ERP_protocol,2022.2.5,59.857622647763755,
Celebs/24_Scarlett_Johansson_0011.jpg,non_target,2,0,2,0,0,7,7,100,,,,,,,,,,,,,362.96725779998815,362.96725779998815,363.4670994000044,,,,,,,000639,001,,,2023-06-02_17h03.38.764,face_recognition_ERP_protocol,2022.2.5,59.857622647763755,
Celebs/28_Scarlett_Johansson_0005.jpg,non_target,2,0,2,0,0,8,8,50,,,,,,,,,,,,,363.9683638999704,363.9683638999704,364.468197899987,,,,,,,000639,001,,,2023-06-02_17h03.38.764,face_recognition_ERP_protocol,2022.2.5,59.857622647763755,
Celebs/47_Johnny_Depp_0009.jpg,non_target,2,0,2,0,0,9,9,23,,,,,,,,,,,,,364.96964659995865,364.96964659995865,365.4693847000017,,,,,,,000639,001,,,2023-06-02_17h03.38.764,face_recognition_ERP_protocol,2022.2.5,59.857622647763755,
Celebs/47_Johnny_Depp_0003.jpg,non_target,2,0,2,0,0,10,10,9,,,,,,,,,,,,,365.9706855000113,365.9706855000113,366.47039069997845,,,,,,,000639,001,,,2023-06-02_17h03.38.764,face_recognition_ERP_protocol,2022.2.5,59.857622647763755,
Celebs/17_Margot_Robbie_0012.jpg,non_target,2,0,2,0,0,11,11,67,,,,,,,,,,,,,366.97185589995934,366.97185589995934,367.47177199996077,,,,,,,000639,001,,,2023-06-02_17h03.38.764,face_recognition_ERP_protocol,2022.2.5,59.857622647763755,
Celebs/21_Daniel_Radcliffe_0009.jpg,target,2,0,2,0,0,12,12,83,,,,,,,,,,,,,367.9731558999629,367.9731558999629,368.47264549997635,,,,,,,000639,001,,,2023-06-02_17h03.38.764,face_recognition_ERP_protocol,2022.2.5,59.857622647763755,
Celebs/40_Will_Smith_0012.jpg,non_target,2,0,2,0,0,13,13,110,,,,,,,,,,,,,368.9745613000123,368.9745613000123,369.47373399999924,,,,,,,000639,001,,,2023-06-02_17h03.38.764,face_recognition_ERP_protocol,2022.2.5,59.857622647763755,
Celebs/23_Daniel_Radcliffe_0002.jpg,target,2,0,2,0,0,14,14,77,,,,,,,,,,,,,369.97515959996963,369.97515959996963,370.4747700999724,,,,,,,000639,001,,,2023-06-02_17h03.38.764,face_recognition_ERP_protocol,2022.2.5,59.857622647763755,
Celebs/55_Jackie_Chan_0003.jpg,non_target,2,0,2,0,0,15,15,29,,,,,,,,,,,,,370.9762037000037,370.9762037000037,371.47585449996404,,,,,,,000639,001,,,2023-06-02_17h03.38.764,face_recognition_ERP_protocol,2022.2.5,59.857622647763755,
Celebs/18_Emma_Watson_0004.jpg,non_target,2,0,2,0,0,16,16,75,,,,,,,,,,,,,371.97693619999336,371.97693619999336,372.4769774999586,,,,,,,000639,001,,,2023-06-02_17h03.38.764,face_recognition_ERP_protocol,2022.2.5,59.857622647763755,
Celebs/40_Jim_Parsons_0015.jpg,non_target,2,0,2,0,0,17,17,45,,,,,,,,,,,,,372.97798769996734,372.97798769996734,373.47804379998706,,,,,,,000639,001,,,2023-06-02_17h03.38.764,face_recognition_ERP_protocol,2022.2.5,59.857622647763755,
Celebs/48_Johnny_Depp_0005.jpg,non_target,2,0,2,0,0,18,18,54,,,,,,,,,,,,,373.962463999982,373.962463999982,374.46251219999976,,,,,,,000639,001,,,2023-06-02_17h03.38.764,face_recognition_ERP_protocol,2022.2.5,59.857622647763755,
Celebs/24_Scarlett_Johansson_0001.jpg,non_target,2,0,2,0,0,19,19,10,,,,,,,,,,,,,374.96429799997713,374.96429799997713,375.4636058000033,,,,,,,000639,001,,,2023-06-02_17h03.38.764,face_recognition_ERP_protocol,2022.2.5,59.857622647763755,
Celebs/50_Johnny_Depp_0004.jpg,non_target,2,0,2,0,0,20,20,39,,,,,,,,,,,,,375.9653929999913,375.9653929999913,376.46484699996654,,,,,,,000639,001,,,2023-06-02_17h03.38.764,face_recognition_ERP_protocol,2022.2.5,59.857622647763755,
Celebs/57_Jackie_Chan_0008.jpg,non_target,2,0,2,0,0,21,21,72,,,,,,,,,,,,,376.9660692999605,376.9660692999605,377.4658066999982,,,,,,,000639,001,,,2023-06-02_17h03.38.764,face_recognition_ERP_protocol,2022.2.5,59.857622647763755,
Celebs/54_Jackie_Chan_0014.jpg,non_target,2,0,2,0,0,22,22,111,,,,,,,,,,,,,377.96729070000583,377.96729070000583,378.46689609996974,,,,,,,000639,001,,,2023-06-02_17h03.38.764,face_recognition_ERP_protocol,2022.2.5,59.857622647763755,
Celebs/22_Emma_Stone_0013.jpg,non_target,2,0,2,0,0,23,23,1,,,,,,,,,,,,,378.96860699995887,378.96860699995887,379.46798949997174,,,,,,,000639,001,,,2023-06-02_17h03.38.764,face_recognition_ERP_protocol,2022.2.5,59.857622647763755,
Celebs/33_Jim_Parsons_0011.jpg,non_target,2,0,2,0,0,24,24,34,,,,,,,,,,,,,379.9694235000061,379.9694235000061,380.4691401000018,,,,,,,000639,001,,,2023-06-02_17h03.38.764,face_recognition_ERP_protocol,2022.2.5,59.857622647763755,
Celebs/18_Daniel_Radcliffe_0007.jpg,target,2,0,2,0,0,25,25,81,,,,,,,,,,,,,380.9705380999949,380.9705380999949,381.47015989996726,,,,,,,000639,001,,,2023-06-02_17h03.38.764,face_recognition_ERP_protocol,2022.2.5,59.857622647763755,
Celebs/36_Neil_Patrick_Harris_0007.jpg,non_target,2,0,2,0,0,26,26,5,,,,,,,,,,,,,381.9715717000072,381.9715717000072,382.47123309999006,,,,,,,000639,001,,,2023-06-02_17h03.38.764,face_recognition_ERP_protocol,2022.2.5,59.857622647763755,
Celebs/52_Jackie_Chan_0002.jpg,non_target,2,0,2,0,0,27,27,68,,,,,,,,,,,,,382.9730735999765,382.9730735999765,383.4719683000003,,,,,,,000639,001,,,2023-06-02_17h03.38.764,face_recognition_ERP_protocol,2022.2.5,59.857622647763755,
Celebs/35_Neil_Patrick_Harris_0009.jpg,non_target,2,0,2,0,0,28,28,87,,,,,,,,,,,,,383.97415099997306,383.97415099997306,384.47349309996935,,,,,,,000639,001,,,2023-06-02_17h03.38.764,face_recognition_ERP_protocol,2022.2.5,59.857622647763755,
Celebs/21_Daniel_Radcliffe_0008.jpg,target,2,0,2,0,0,29,29,16,,,,,,,,,,,,,384.9745865999721,384.9745865999721,385.4744801999768,,,,,,,000639,001,,,2023-06-02_17h03.38.764,face_recognition_ERP_protocol,2022.2.5,59.857622647763755,
Celebs/17_Daniel_Radcliffe_0007.jpg,target,2,0,2,0,0,30,30,19,,,,,,,,,,,,,385.97583299997495,385.97583299997495,386.4755998000037,,,,,,,000639,001,,,2023-06-02_17h03.38.764,face_recognition_ERP_protocol,2022.2.5,59.857622647763755,
Celebs/20_Scarlett_Johansson_0011.jpg,non_target,2,0,2,0,0,31,31,109,,,,,,,,,,,,,386.97661539999535,386.97661539999535,387.4767130999826,,,,,,,000639,001,,,2023-06-02_17h03.38.764,face_recognition_ERP_protocol,2022.2.5,59.857622647763755,
Celebs/39_Jim_Parsons_0001.jpg,non_target,2,0,2,0,0,32,32,49,,,,,,,,,,,,,387.9778568999609,387.9778568999609,388.477820399974,,,,,,,000639,001,,,2023-06-02_17h03.38.764,face_recognition_ERP_protocol,2022.2.5,59.857622647763755,
Celebs/26_Scarlett_Johansson_0008.jpg,non_target,2,0,2,0,0,33,33,47,,,,,,,,,,,,,388.979211799975,388.979211799975,389.4622364999959,,,,,,,000639,001,,,2023-06-02_17h03.38.764,face_recognition_ERP_protocol,2022.2.5,59.857622647763755,
Celebs/37_Will_Smith_0015.jpg,non_target,2,0,2,0,0,34,34,113,,,,,,,,,,,,,389.96316240000306,389.96316240000306,390.4633184999693,,,,,,,000639,001,,,2023-06-02_17h03.38.764,face_recognition_ERP_protocol,2022.2.5,59.857622647763755,
Celebs/38_Neil_Patrick_Harris_0006.jpg,non_target,2,0,2,0,0,35,35,31,,,,,,,,,,,,,390.965538199991,390.965538199991,391.46446980000474,,,,,,,000639,001,,,2023-06-02_17h03.38.764,face_recognition_ERP_protocol,2022.2.5,59.857622647763755,
Celebs/23_Emma_Stone_0014.jpg,non_target,2,0,2,0,0,36,36,12,,,,,,,,,,,,,391.9655432999716,391.9655432999716,392.4655347999651,,,,,,,000639,001,,,2023-06-02_17h03.38.764,face_recognition_ERP_protocol,2022.2.5,59.857622647763755,
Celebs/55_Jackie_Chan_0008.jpg,non_target,2,0,2,0,0,37,37,92,,,,,,,,,,,,,392.96716389997164,392.96716389997164,393.4666048999643,,,,,,,000639,001,,,2023-06-02_17h03.38.764,face_recognition_ERP_protocol,2022.2.5,59.857622647763755,
Celebs/16_Emma_Stone_0010.jpg,non_target,2,0,2,0,0,38,38,95,,,,,,,,,,,,,393.9679994999897,393.9679994999897,394.4677047999576,,,,,,,000639,001,,,2023-06-02_17h03.38.764,face_recognition_ERP_protocol,2022.2.5,59.857622647763755,
Celebs/14_Emma_Watson_0008.jpg,non_target,2,0,2,0,0,39,39,36,,,,,,,,,,,,,394.9689655000111,394.9689655000111,395.4688504000078,,,,,,,000639,001,,,2023-06-02_17h03.38.764,face_recognition_ERP_protocol,2022.2.5,59.857622647763755,
Celebs/18_Daniel_Radcliffe_0002.jpg,target,2,0,2,0,0,40,40,119,,,,,,,,,,,,,395.9705010000034,395.9705010000034,396.4698917999631,,,,,,,000639,001,,,2023-06-02_17h03.38.764,face_recognition_ERP_protocol,2022.2.5,59.857622647763755,
Celebs/26_Scarlett_Johansson_0003.jpg,non_target,2,0,2,0,0,41,41,105,,,,,,,,,,,,,396.97093139996286,396.97093139996286,397.4709424999892,,,,,,,000639,001,,,2023-06-02_17h03.38.764,face_recognition_ERP_protocol,2022.2.5,59.857622647763755,
Celebs/50_Johnny_Depp_0010.jpg,non_target,2,0,2,0,0,42,42,115,,,,,,,,,,,,,397.97235130000627,397.97235130000627,398.47209110000404,,,,,,,000639,001,,,2023-06-02_17h03.38.764,face_recognition_ERP_protocol,2022.2.5,59.857622647763755,
Celebs/45_Will_Smith_0010.jpg,non_target,2,0,2,0,0,43,43,69,,,,,,,,,,,,,398.97358779999195,398.97358779999195,399.4731951999711,,,,,,,000639,001,,,2023-06-02_17h03.38.764,face_recognition_ERP_protocol,2022.2.5,59.857622647763755,
Celebs/21_Margot_Robbie_0003.jpg,non_target,2,0,2,0,0,44,44,27,,,,,,,,,,,,,399.9775846999837,399.9775846999837,400.47429330000887,,,,,,,000639,001,,,2023-06-02_17h03.38.764,face_recognition_ERP_protocol,2022.2.5,59.857622647763755,
Celebs/37_Neil_Patrick_Harris_0014.jpg,non_target,2,0,2,0,0,45,45,37,,,,,,,,,,,,,400.9754469000036,400.9754469000036,401.47540429997025,,,,,,,000639,001,,,2023-06-02_17h03.38.764,face_recognition_ERP_protocol,2022.2.5,59.857622647763755,
Celebs/19_Emma_Stone_0006.jpg,non_target,2,0,2,0,0,46,46,66,,,,,,,,,,,,,401.9768962999806,401.9768962999806,402.47649119998096,,,,,,,000639,001,,,2023-06-02_17h03.38.764,face_recognition_ERP_protocol,2022.2.5,59.857622647763755,
Celebs/24_Emma_Stone_0015.jpg,non_target,2,0,2,0,0,47,47,57,,,,,,,,,,,,,402.9777156999917,402.9777156999917,403.4775404999964,,,,,,,000639,001,,,2023-06-02_17h03.38.764,face_recognition_ERP_protocol,2022.2.5,59.857622647763755,
Celebs/16_Margot_Robbie_0009.jpg,non_target,2,0,2,0,0,48,48,107,,,,,,,,,,,,,403.97898089996306,403.97898089996306,404.462028799986,,,,,,,000639,001,,,2023-06-02_17h03.38.764,face_recognition_ERP_protocol,2022.2.5,59.857622647763755,
Celebs/19_Margot_Robbie_0001.jpg,non_target,2,0,2,0,0,49,49,51,,,,,,,,,,,,,404.96309669996845,404.96309669996845,405.4630667999736,,,,,,,000639,001,,,2023-06-02_17h03.38.764,face_recognition_ERP_protocol,2022.2.5,59.857622647763755,
Celebs/18_Emma_Stone_0016.jpg,non_target,2,0,2,0,0,50,50,52,,,,,,,,,,,,,405.9649044999969,405.9649044999969,406.4643148999894,,,,,,,000639,001,,,2023-06-02_17h03.38.764,face_recognition_ERP_protocol,2022.2.5,59.857622647763755,
Celebs/17_Margot_Robbie_0006.jpg,non_target,2,0,2,0,0,51,51,17,,,,,,,,,,,,,406.965771499963,406.965771499963,407.46531579998555,,,,,,,000639,001,,,2023-06-02_17h03.38.764,face_recognition_ERP_protocol,2022.2.5,59.857622647763755,
Celebs/39_Jim_Parsons_0008.jpg,non_target,2,0,2,0,0,52,52,89,,,,,,,,,,,,,407.96632119995775,407.96632119995775,408.4663182999939,,,,,,,000639,001,,,2023-06-02_17h03.38.764,face_recognition_ERP_protocol,2022.2.5,59.857622647763755,
Celebs/29_Scarlett_Johansson_0010.jpg,non_target,2,0,2,0,0,53,53,85,,,,,,,,,,,,,408.9674632999813,408.9674632999813,409.4674884999986,,,,,,,000639,001,,,2023-06-02_17h03.38.764,face_recognition_ERP_protocol,2022.2.5,59.857622647763755,
Celebs/24_Daniel_Radcliffe_0017.jpg,target,2,0,2,0,0,54,54,71,,,,,,,,,,,,,409.9689760999754,409.9689760999754,410.46860500000184,,,,,,,000639,001,,,2023-06-02_17h03.38.764,face_recognition_ERP_protocol,2022.2.5,59.857622647763755,
Celebs/51_Jackie_Chan_0006.jpg,non_target,2,0,2,0,0,55,55,97,,,,,,,,,,,,,410.96977669995977,410.96977669995977,411.46958370000357,,,,,,,000639,001,,,2023-06-02_17h03.38.764,face_recognition_ERP_protocol,2022.2.5,59.857622647763755,
Celebs/33_Neil_Patrick_Harris_0011.jpg,non_target,2,0,2,0,0,56,56,112,,,,,,,,,,,,,411.97109289997024,411.97109289997024,412.4707118999795,,,,,,,000639,001,,,2023-06-02_17h03.38.764,face_recognition_ERP_protocol,2022.2.5,59.857622647763755,
Celebs/55_Jackie_Chan_0015.jpg,non_target,2,0,2,0,0,57,57,30,,,,,,,,,,,,,412.9721786999726,412.9721786999726,413.4718202999793,,,,,,,000639,001,,,2023-06-02_17h03.38.764,face_recognition_ERP_protocol,2022.2.5,59.857622647763755,
Celebs/14_Emma_Watson_0015.jpg,non_target,2,0,2,0,0,58,58,56,,,,,,,,,,,,,413.97323080000933,413.97323080000933,414.4731514999876,,,,,,,000639,001,,,2023-06-02_17h03.38.764,face_recognition_ERP_protocol,2022.2.5,59.857622647763755,
Celebs/20_Emma_Watson_0007.jpg,non_target,2,0,2,0,0,59,59,96,,,,,,,,,,,,,414.97425480000675,414.97425480000675,415.47397349996027,,,,,,,000639,001,,,2023-06-02_17h03.38.764,face_recognition_ERP_protocol,2022.2.5,59.857622647763755,
Celebs/14_Emma_Watson_0013.jpg,non_target,2,0,2,0,0,60,60,20,,,,,,,,,,,,,415.9754879999673,415.9754879999673,416.47507649997715,,,,,,,000639,001,,,2023-06-02_17h03.38.764,face_recognition_ERP_protocol,2022.2.5,59.857622647763755,
Celebs/18_Daniel_Radcliffe_0008.jpg,target,2,0,2,0,0,61,61,28,,,,,,,,,,,,,416.97638259996893,416.97638259996893,417.47624849999556,,,,,,,000639,001,,,2023-06-02_17h03.38.764,face_recognition_ERP_protocol,2022.2.5,59.857622647763755,
Celebs/29_Scarlett_Johansson_0016.jpg,non_target,2,0,2,0,0,62,62,2,,,,,,,,,,,,,417.9801570000127,417.9801570000127,418.4772990999627,,,,,,,000639,001,,,2023-06-02_17h03.38.764,face_recognition_ERP_protocol,2022.2.5,59.857622647763755,
Celebs/40_Jim_Parsons_0004.jpg,non_target,2,0,2,0,0,63,63,73,,,,,,,,,,,,,418.979382599995,418.979382599995,419.4618124999688,,,,,,,000639,001,,,2023-06-02_17h03.38.764,face_recognition_ERP_protocol,2022.2.5,59.857622647763755,
Celebs/16_Emma_Stone_0012.jpg,non_target,2,0,2,0,0,64,64,70,,,,,,,,,,,,,419.9634352999856,419.9634352999856,420.46288529998856,,,,,,,000639,001,,,2023-06-02_17h03.38.764,face_recognition_ERP_protocol,2022.2.5,59.857622647763755,
Celebs/14_Emma_Watson_0004.jpg,non_target,2,0,2,0,0,65,65,14,,,,,,,,,,,,,420.96391940000467,420.96391940000467,421.4639568999992,,,,,,,000639,001,,,2023-06-02_17h03.38.764,face_recognition_ERP_protocol,2022.2.5,59.857622647763755,
Celebs/48_Johnny_Depp_0001.jpg,non_target,2,0,2,0,0,66,66,106,,,,,,,,,,,,,421.9649652999942,421.9649652999942,422.46495749999303,,,,,,,000639,001,,,2023-06-02_17h03.38.764,face_recognition_ERP_protocol,2022.2.5,59.857622647763755,
Celebs/43_Will_Smith_0007.jpg,non_target,2,0,2,0,0,67,67,74,,,,,,,,,,,,,422.9660978000029,422.9660978000029,423.4660636999761,,,,,,,000639,001,,,2023-06-02_17h03.38.764,face_recognition_ERP_protocol,2022.2.5,59.857622647763755,
Celebs/37_Neil_Patrick_Harris_0010.jpg,non_target,2,0,2,0,0,68,68,93,,,,,,,,,,,,,423.9671207999927,423.9671207999927,424.4672801999841,,,,,,,000639,001,,,2023-06-02_17h03.38.764,face_recognition_ERP_protocol,2022.2.5,59.857622647763755,
Celebs/16_Emma_Stone_0014.jpg,non_target,2,0,2,0,0,69,69,40,,,,,,,,,,,,,424.9681730999728,424.9681730999728,425.46832009998616,,,,,,,000639,001,,,2023-06-02_17h03.38.764,face_recognition_ERP_protocol,2022.2.5,59.857622647763755,
Celebs/19_Margot_Robbie_0004.jpg,non_target,2,0,2,0,0,70,70,42,,,,,,,,,,,,,425.9692824999802,425.9692824999802,426.46932939998806,,,,,,,000639,001,,,2023-06-02_17h03.38.764,face_recognition_ERP_protocol,2022.2.5,59.857622647763755,
Celebs/21_Emma_Stone_0002.jpg,non_target,2,0,2,0,0,71,71,103,,,,,,,,,,,,,426.97039669996593,426.97039669996593,427.47050170000875,,,,,,,000639,001,,,2023-06-02_17h03.38.764,face_recognition_ERP_protocol,2022.2.5,59.857622647763755,
Celebs/50_Jackie_Chan_0014.jpg,non_target,2,0,2,0,0,72,72,38,,,,,,,,,,,,,427.9715419000131,427.9715419000131,428.47153119998984,,,,,,,000639,001,,,2023-06-02_17h03.38.764,face_recognition_ERP_protocol,2022.2.5,59.857622647763755,
Celebs/44_Will_Smith_0007.jpg,non_target,2,0,2,0,0,73,73,65,,,,,,,,,,,,,428.9728688999894,428.9728688999894,429.4726565000019,,,,,,,000639,001,,,2023-06-02_17h03.38.764,face_recognition_ERP_protocol,2022.2.5,59.857622647763755,
Celebs/16_Emma_Stone_0008.jpg,non_target,2,0,2,0,0,74,74,48,,,,,,,,,,,,,429.97385760000907,429.97385760000907,430.47372259997064,,,,,,,000639,001,,,2023-06-02_17h03.38.764,face_recognition_ERP_protocol,2022.2.5,59.857622647763755,
Celebs/27_Scarlett_Johansson_0012.jpg,non_target,2,0,2,0,0,75,75,78,,,,,,,,,,,,,430.97613620001357,430.97613620001357,431.47482709999895,,,,,,,000639,001,,,2023-06-02_17h03.38.764,face_recognition_ERP_protocol,2022.2.5,59.857622647763755,
Celebs/15_Margot_Robbie_0012.jpg,non_target,2,0,2,0,0,76,76,82,,,,,,,,,,,,,431.97581589996116,431.97581589996116,432.4759329999797,,,,,,,000639,001,,,2023-06-02_17h03.38.764,face_recognition_ERP_protocol,2022.2.5,59.857622647763755,
Celebs/23_Daniel_Radcliffe_0019.jpg,target,2,0,2,0,0,77,77,6,,,,,,,,,,,,,432.9769477999653,432.9769477999653,433.47702990000835,,,,,,,000639,001,,,2023-06-02_17h03.38.764,face_recognition_ERP_protocol,2022.2.5,59.857622647763755,
Celebs/25_Scarlett_Johansson_0010.jpg,non_target,2,0,2,0,0,78,78,32,,,,,,,,,,,,,433.9781008999562,433.9781008999562,434.4781416999758,,,,,,,000639,001,,,2023-06-02_17h03.38.764,face_recognition_ERP_protocol,2022.2.5,59.857622647763755,
Celebs/34_Neil_Patrick_Harris_0007.jpg,non_target,2,0,2,0,0,79,79,117,,,,,,,,,,,,,434.9625487999874,434.9625487999874,435.46251709997887,,,,,,,000639,001,,,2023-06-02_17h03.38.764,face_recognition_ERP_protocol,2022.2.5,59.857622647763755,
Celebs/31_Neil_Patrick_Harris_0008.jpg,non_target,2,0,2,0,0,80,80,99,,,,,,,,,,,,,435.9636434999993,435.9636434999993,436.46369850001065,,,,,,,000639,001,,,2023-06-02_17h03.38.764,face_recognition_ERP_protocol,2022.2.5,59.857622647763755,
Celebs/21_Scarlett_Johansson_0007.jpg,non_target,2,0,2,0,0,81,81,118,,,,,,,,,,,,,436.96467730001314,436.96467730001314,437.4647410999751,,,,,,,000639,001,,,2023-06-02_17h03.38.764,face_recognition_ERP_protocol,2022.2.5,59.857622647763755,
Celebs/44_Will_Smith_0006.jpg,non_target,2,0,2,0,0,82,82,41,,,,,,,,,,,,,437.9657204999821,437.9657204999821,438.4658138999948,,,,,,,000639,001,,,2023-06-02_17h03.38.764,face_recognition_ERP_protocol,2022.2.5,59.857622647763755,
Celebs/44_Will_Smith_0015.jpg,non_target,2,0,2,0,0,83,83,101,,,,,,,,,,,,,438.9671879999805,438.9671879999805,439.46695249999175,,,,,,,000639,001,,,2023-06-02_17h03.38.764,face_recognition_ERP_protocol,2022.2.5,59.857622647763755,
Celebs/23_Daniel_Radcliffe_0010.jpg,target,2,0,2,0,0,84,84,15,,,,,,,,,,,,,439.9680173000088,439.9680173000088,440.46809009998105,,,,,,,000639,001,,,2023-06-02_17h03.38.764,face_recognition_ERP_protocol,2022.2.5,59.857622647763755,
Celebs/48_Johnny_Depp_0003.jpg,non_target,2,0,2,0,0,85,85,55,,,,,,,,,,,,,440.9692159999977,440.9692159999977,441.46916410000995,,,,,,,000639,001,,,2023-06-02_17h03.38.764,face_recognition_ERP_protocol,2022.2.5,59.857622647763755,
Celebs/43_Will_Smith_0010.jpg,non_target,2,0,2,0,0,86,86,22,,,,,,,,,,,,,441.97028720000526,441.97028720000526,442.4702603999758,,,,,,,000639,001,,,2023-06-02_17h03.38.764,face_recognition_ERP_protocol,2022.2.5,59.857622647763755,
Celebs/50_Jackie_Chan_0012.jpg,non_target,2,0,2,0,0,87,87,43,,,,,,,,,,,,,442.97152469999855,442.97152469999855,443.47140469995793,,,,,,,000639,001,,,2023-06-02_17h03.38.764,face_recognition_ERP_protocol,2022.2.5,59.857622647763755,
Celebs/20_Margot_Robbie_0004.jpg,non_target,2,0,2,0,0,88,88,116,,,,,,,,,,,,,443.9723884999985,443.9723884999985,444.47237360000145,,,,,,,000639,001,,,2023-06-02_17h03.38.764,face_recognition_ERP_protocol,2022.2.5,59.857622647763755,
Celebs/22_Emma_Watson_0003.jpg,non_target,2,0,2,0,0,89,89,91,,,,,,,,,,,,,444.97358859999804,444.97358859999804,445.4733276999905,,,,,,,000639,001,,,2023-06-02_17h03.38.764,face_recognition_ERP_protocol,2022.2.5,59.857622647763755,
Celebs/21_Emma_Watson_0004.jpg,non_target,2,0,2,0,0,90,90,21,,,,,,,,,,,,,445.9744064999977,445.9744064999977,446.4745782999671,,,,,,,000639,001,,,2023-06-02_17h03.38.764,face_recognition_ERP_protocol,2022.2.5,59.857622647763755,
Celebs/36_Neil_Patrick_Harris_0010.jpg,non_target,2,0,2,0,0,91,91,79,,,,,,,,,,,,,446.97603139997227,446.97603139997227,447.47561769996537,,,,,,,000639,001,,,2023-06-02_17h03.38.764,face_recognition_ERP_protocol,2022.2.5,59.857622647763755,
Celebs/22_Emma_Watson_0010.jpg,non_target,2,0,2,0,0,92,92,11,,,,,,,,,,,,,447.9770614999579,447.9770614999579,448.476735299977,,,,,,,000639,001,,,2023-06-02_17h03.38.764,face_recognition_ERP_protocol,2022.2.5,59.857622647763755,
Celebs/34_Neil_Patrick_Harris_0004.jpg,non_target,2,0,2,0,0,93,93,104,,,,,,,,,,,,,448.97781559999567,448.97781559999567,449.47787469998,,,,,,,000639,001,,,2023-06-02_17h03.38.764,face_recognition_ERP_protocol,2022.2.5,59.857622647763755,
Celebs/17_Emma_Watson_0006.jpg,non_target,2,0,2,0,0,94,94,90,,,,,,,,,,,,,449.97913459996926,449.97913459996926,450.46226130001014,,,,,,,000639,001,,,2023-06-02_17h03.38.764,face_recognition_ERP_protocol,2022.2.5,59.857622647763755,
Celebs/45_Will_Smith_0014.jpg,non_target,2,0,2,0,0,95,95,59,,,,,,,,,,,,,450.96308610000415,450.96308610000415,451.46344620001037,,,,,,,000639,001,,,2023-06-02_17h03.38.764,face_recognition_ERP_protocol,2022.2.5,59.857622647763755,
Celebs/38_Will_Smith_0013.jpg,non_target,2,0,2,0,0,96,96,13,,,,,,,,,,,,,451.9643772999989,451.9643772999989,452.4644912999938,,,,,,,000639,001,,,2023-06-02_17h03.38.764,face_recognition_ERP_protocol,2022.2.5,59.857622647763755,
Celebs/39_Neil_Patrick_Harris_0010.jpg,non_target,2,0,2,0,0,97,97,94,,,,,,,,,,,,,452.9654113999568,452.9654113999568,453.4656848000013,,,,,,,000639,001,,,2023-06-02_17h03.38.764,face_recognition_ERP_protocol,2022.2.5,59.857622647763755,
Celebs/20_Emma_Stone_0005.jpg,non_target,2,0,2,0,0,98,98,63,,,,,,,,,,,,,453.96673310000915,453.96673310000915,454.46731189999264,,,,,,,000639,001,,,2023-06-02_17h03.38.764,face_recognition_ERP_protocol,2022.2.5,59.857622647763755,
Celebs/39_Neil_Patrick_Harris_0001.jpg,non_target,2,0,2,0,0,99,99,4,,,,,,,,,,,,,454.9676381999743,454.9676381999743,455.46797960001277,,,,,,,000639,001,,,2023-06-02_17h03.38.764,face_recognition_ERP_protocol,2022.2.5,59.857622647763755,
Celebs/32_Jim_Parsons_0018.jpg,non_target,2,0,2,0,0,100,100,46,,,,,,,,,,,,,455.96929290000116,455.96929290000116,456.46907709998777,,,,,,,000639,001,,,2023-06-02_17h03.38.764,face_recognition_ERP_protocol,2022.2.5,59.857622647763755,
Celebs/43_Will_Smith_0006.jpg,non_target,2,0,2,0,0,101,101,61,,,,,,,,,,,,,456.9702205999638,456.9702205999638,457.4698984999559,,,,,,,000639,001,,,2023-06-02_17h03.38.764,face_recognition_ERP_protocol,2022.2.5,59.857622647763755,
Celebs/49_Johnny_Depp_0013.jpg,non_target,2,0,2,0,0,102,102,33,,,,,,,,,,,,,457.97075209999457,457.97075209999457,458.47108099999605,,,,,,,000639,001,,,2023-06-02_17h03.38.764,face_recognition_ERP_protocol,2022.2.5,59.857622647763755,
Celebs/20_Margot_Robbie_0006.jpg,non_target,2,0,2,0,0,103,103,35,,,,,,,,,,,,,458.97192370000994,458.97192370000994,459.47213989996817,,,,,,,000639,001,,,2023-06-02_17h03.38.764,face_recognition_ERP_protocol,2022.2.5,59.857622647763755,
Celebs/21_Emma_Stone_0003.jpg,non_target,2,0,2,0,0,104,104,25,,,,,,,,,,,,,459.97186990000773,459.97186990000773,460.4732189999777,,,,,,,000639,001,,,2023-06-02_17h03.38.764,face_recognition_ERP_protocol,2022.2.5,59.857622647763755,
Celebs/22_Emma_Watson_0001.jpg,non_target,2,0,2,0,0,105,105,58,,,,,,,,,,,,,460.9745991000091,460.9745991000091,461.4743053999846,,,,,,,000639,001,,,2023-06-02_17h03.38.764,face_recognition_ERP_protocol,2022.2.5,59.857622647763755,
Celebs/38_Jim_Parsons_0003.jpg,non_target,2,0,2,0,0,106,106,53,,,,,,,,,,,,,461.97566100000404,461.97566100000404,462.47537199995713,,,,,,,000639,001,,,2023-06-02_17h03.38.764,face_recognition_ERP_protocol,2022.2.5,59.857622647763755,
Celebs/17_Margot_Robbie_0014.jpg,non_target,2,0,2,0,0,107,107,114,,,,,,,,,,,,,462.97674969997024,462.97674969997024,463.47652119997656,,,,,,,000639,001,,,2023-06-02_17h03.38.764,face_recognition_ERP_protocol,2022.2.5,59.857622647763755,
Celebs/32_Jim_Parsons_0010.jpg,non_target,2,0,2,0,0,108,108,98,,,,,,,,,,,,,463.9774954000022,463.9774954000022,464.4776069999789,,,,,,,000639,001,,,2023-06-02_17h03.38.764,face_recognition_ERP_protocol,2022.2.5,59.857622647763755,
Celebs/47_Johnny_Depp_0004.jpg,non_target,2,0,2,0,0,109,109,76,,,,,,,,,,,,,464.9786149999709,464.9786149999709,465.46207599999616,,,,,,,000639,001,,,2023-06-02_17h03.38.764,face_recognition_ERP_protocol,2022.2.5,59.857622647763755,
Celebs/36_Jim_Parsons_0011.jpg,non_target,2,0,2,0,0,110,110,86,,,,,,,,,,,,,465.9633026999654,465.9633026999654,466.46316320000915,,,,,,,000639,001,,,2023-06-02_17h03.38.764,face_recognition_ERP_protocol,2022.2.5,59.857622647763755,
Celebs/58_Jackie_Chan_0005.jpg,non_target,2,0,2,0,0,111,111,3,,,,,,,,,,,,,466.96439469995676,466.96439469995676,467.46421599999303,,,,,,,000639,001,,,2023-06-02_17h03.38.764,face_recognition_ERP_protocol,2022.2.5,59.857622647763755,
Celebs/15_Margot_Robbie_0005.jpg,non_target,2,0,2,0,0,112,112,80,,,,,,,,,,,,,467.96535789995687,467.96535789995687,468.46533669997007,,,,,,,000639,001,,,2023-06-02_17h03.38.764,face_recognition_ERP_protocol,2022.2.5,59.857622647763755,
Celebs/14_Emma_Watson_0005.jpg,non_target,2,0,2,0,0,113,113,26,,,,,,,,,,,,,468.9666599999764,468.9666599999764,469.46645189996343,,,,,,,000639,001,,,2023-06-02_17h03.38.764,face_recognition_ERP_protocol,2022.2.5,59.857622647763755,
Celebs/50_Johnny_Depp_0008.jpg,non_target,2,0,2,0,0,114,114,84,,,,,,,,,,,,,469.9678117999574,469.9678117999574,470.4675125000067,,,,,,,000639,001,,,2023-06-02_17h03.38.764,face_recognition_ERP_protocol,2022.2.5,59.857622647763755,
Celebs/54_Jackie_Chan_0001.jpg,non_target,2,0,2,0,0,115,115,7,,,,,,,,,,,,,470.96896739996737,470.96896739996737,471.46858499996597,,,,,,,000639,001,,,2023-06-02_17h03.38.764,face_recognition_ERP_protocol,2022.2.5,59.857622647763755,
Celebs/21_Daniel_Radcliffe_0002.jpg,target,2,0,2,0,0,116,116,60,,,,,,,,,,,,,471.96975190000376,471.96975190000376,472.4696459000115,,,,,,,000639,001,,,2023-06-02_17h03.38.764,face_recognition_ERP_protocol,2022.2.5,59.857622647763755,
Celebs/32_Jim_Parsons_0016.jpg,non_target,2,0,2,0,0,117,117,102,,,,,,,,,,,,,472.9712008999777,472.9712008999777,473.47078659996623,,,,,,,000639,001,,,2023-06-02_17h03.38.764,face_recognition_ERP_protocol,2022.2.5,59.857622647763755,
Celebs/45_Johnny_Depp_0003.jpg,non_target,2,0,2,0,0,118,118,108,,,,,,,,,,,,,473.9718028999632,473.9718028999632,474.47186180000426,,,,,,,000639,001,,,2023-06-02_17h03.38.764,face_recognition_ERP_protocol,2022.2.5,59.857622647763755,
Celebs/39_Jim_Parsons_0010.jpg,non_target,2,0,2,0,0,119,119,0,,,,,,,,,,,,,474.9730489999638,474.9730489999638,475.472956899961,,,,,,,000639,001,,,2023-06-02_17h03.38.764,face_recognition_ERP_protocol,2022.2.5,59.857622647763755,
Celebs/22_Scarlett_Johansson_0005.jpg,non_target,3,0,3,0,0,0,0,44,,,,,,,,,,,,,488.5196314000059,488.5196314000059,488.9877228999976,475.9737071999698,475.9737071999698,space,12.474968400027137,,,000639,001,,,2023-06-02_17h03.38.764,face_recognition_ERP_protocol,2022.2.5,59.857622647763755,
Celebs/43_Will_Smith_0007.jpg,non_target,3,0,3,0,0,1,1,74,,,,,,,,,,,,,489.4888146999874,489.4888146999874,489.9888393000001,,,,,,,000639,001,,,2023-06-02_17h03.38.764,face_recognition_ERP_protocol,2022.2.5,59.857622647763755,
Celebs/38_Jim_Parsons_0003.jpg,non_target,3,0,3,0,0,2,2,53,,,,,,,,,,,,,490.48977519996697,490.48977519996697,490.9899678999791,,,,,,,000639,001,,,2023-06-02_17h03.38.764,face_recognition_ERP_protocol,2022.2.5,59.857622647763755,
Celebs/54_Jackie_Chan_0014.jpg,non_target,3,0,3,0,0,3,3,111,,,,,,,,,,,,,491.4743568999693,491.4743568999693,491.974362799956,,,,,,,000639,001,,,2023-06-02_17h03.38.764,face_recognition_ERP_protocol,2022.2.5,59.857622647763755,
Celebs/50_Jackie_Chan_0012.jpg,non_target,3,0,3,0,0,4,4,43,,,,,,,,,,,,,492.47598019998986,492.47598019998986,492.97560040000826,,,,,,,000639,001,,,2023-06-02_17h03.38.764,face_recognition_ERP_protocol,2022.2.5,59.857622647763755,
Celebs/37_Will_Smith_0015.jpg,non_target,3,0,3,0,0,5,5,113,,,,,,,,,,,,,493.47683759999927,493.47683759999927,493.9765257000108,,,,,,,000639,001,,,2023-06-02_17h03.38.764,face_recognition_ERP_protocol,2022.2.5,59.857622647763755,
Celebs/39_Neil_Patrick_Harris_0001.jpg,non_target,3,0,3,0,0,6,6,4,,,,,,,,,,,,,494.4776647000108,494.4776647000108,494.9776045999606,,,,,,,000639,001,,,2023-06-02_17h03.38.764,face_recognition_ERP_protocol,2022.2.5,59.857622647763755,
Celebs/16_Emma_Stone_0010.jpg,non_target,3,0,3,0,0,7,7,95,,,,,,,,,,,,,495.47920790000353,495.47920790000353,495.9786930999835,,,,,,,000639,001,,,2023-06-02_17h03.38.764,face_recognition_ERP_protocol,2022.2.5,59.857622647763755,
Celebs/44_Will_Smith_0015.jpg,non_target,3,0,3,0,0,8,8,101,,,,,,,,,,,,,496.47993229998974,496.47993229998974,496.9798237999785,,,,,,,000639,001,,,2023-06-02_17h03.38.764,face_recognition_ERP_protocol,2022.2.5,59.857622647763755,
Celebs/47_Johnny_Depp_0009.jpg,non_target,3,0,3,0,0,9,9,23,,,,,,,,,,,,,497.4811607999727,497.4811607999727,497.98090540000703,,,,,,,000639,001,,,2023-06-02_17h03.38.764,face_recognition_ERP_protocol,2022.2.5,59.857622647763755,
Celebs/23_Daniel_Radcliffe_0002.jpg,target,3,0,3,0,0,10,10,77,,,,,,,,,,,,,498.482368899975,498.482368899975,498.98200359998737,,,,,,,000639,001,,,2023-06-02_17h03.38.764,face_recognition_ERP_protocol,2022.2.5,59.857622647763755,
Celebs/17_Emma_Watson_0006.jpg,non_target,3,0,3,0,0,11,11,90,,,,,,,,,,,,,499.48337199998787,499.48337199998787,499.9831455000094,,,,,,,000639,001,,,2023-06-02_17h03.38.764,face_recognition_ERP_protocol,2022.2.5,59.857622647763755,
Celebs/27_Scarlett_Johansson_0012.jpg,non_target,3,0,3,0,0,12,12,78,,,,,,,,,,,,,500.4845255999826,500.4845255999826,500.98419379995903,,,,,,,000639,001,,,2023-06-02_17h03.38.764,face_recognition_ERP_protocol,2022.2.5,59.857622647763755,
Celebs/39_Jim_Parsons_0010.jpg,non_target,3,0,3,0,0,13,13,0,,,,,,,,,,,,,501.48556319996715,501.48556319996715,501.98534119996475,,,,,,,000639,001,,,2023-06-02_17h03.38.764,face_recognition_ERP_protocol,2022.2.5,59.857622647763755,
Celebs/18_Daniel_Radcliffe_0002.jpg,target,3,0,3,0,0,14,14,119,,,,,,,,,,,,,502.48641539999517,502.48641539999517,502.9864462999976,,,,,,,000639,001,,,2023-06-02_17h03.38.764,face_recognition_ERP_protocol,2022.2.5,59.857622647763755,
Celebs/32_Jim_Parsons_0018.jpg,non_target,3,0,3,0,0,15,15,46,,,,,,,,,,,,,503.48747960000765,503.48747960000765,503.9874778999947,,,,,,,000639,001,,,2023-06-02_17h03.38.764,face_recognition_ERP_protocol,2022.2.5,59.857622647763755,
Celebs/21_Emma_Stone_0003.jpg,non_target,3,0,3,0,0,16,16,25,,,,,,,,,,,,,504.4885230999789,504.4885230999789,504.9885898999637,,,,,,,000639,001,,,2023-06-02_17h03.38.764,face_recognition_ERP_protocol,2022.2.5,59.857622647763755,
Celebs/22_Margot_Robbie_0010.jpg,non_target,3,0,3,0,0,17,17,18,,,,,,,,,,,,,505.4895041999989,505.4895041999989,505.9730424999725,,,,,,,000639,001,,,2023-06-02_17h03.38.764,face_recognition_ERP_protocol,2022.2.5,59.857622647763755,
Celebs/32_Jim_Parsons_0016.jpg,non_target,3,0,3,0,0,18,18,102,,,,,,,,,,,,,506.47436839999864,506.47436839999864,506.9740814999677,,,,,,,000639,001,,,2023-06-02_17h03.38.764,face_recognition_ERP_protocol,2022.2.5,59.857622647763755,
Celebs/36_Neil_Patrick_Harris_0010.jpg,non_target,3,0,3,0,0,19,19,79,,,,,,,,,,,,,507.4739554999978,507.4739554999978,507.97519599995576,,,,,,,000639,001,,,2023-06-02_17h03.38.764,face_recognition_ERP_protocol,2022.2.5,59.857622647763755,
Celebs/36_Neil_Patrick_Harris_0007.jpg,non_target,3,0,3,0,0,20,20,5,,,,,,,,,,,,,508.47603459999664,508.47603459999664,508.9762985999696,,,,,,,000639,001,,,2023-06-02_17h03.38.764,face_recognition_ERP_protocol,2022.2.5,59.857622647763755,
Celebs/22_Emma_Watson_0001.jpg,non_target,3,0,3,0,0,21,21,58,,,,,,,,,,,,,509.4774892999558,509.4774892999558,509.97735359997023,,,,,,,000639,001,,,2023-06-02_17h03.38.764,face_recognition_ERP_protocol,2022.2.5,59.857622647763755,
Celebs/50_Johnny_Depp_0004.jpg,non_target,3,0,3,0,0,22,22,39,,,,,,,,,,,,,510.4786159999785,510.4786159999785,510.97846859996207,,,,,,,000639,001,,,2023-06-02_17h03.38.764,face_recognition_ERP_protocol,2022.2.5,59.857622647763755,
Celebs/21_Daniel_Radcliffe_0002.jpg,target,3,0,3,0,0,23,23,60,,,,,,,,,,,,,511.4793228000053,511.4793228000053,511.9795616999618,,,,,,,000639,001,,,2023-06-02_17h03.38.764,face_recognition_ERP_protocol,2022.2.5,59.857622647763755,
Celebs/33_Neil_Patrick_Harris_0011.jpg,non_target,3,0,3,0,0,24,24,112,,,,,,,,,,,,,512.4806326999678,512.4806326999678,512.9807435999974,,,,,,,000639,001,,,2023-06-02_17h03.38.764,face_recognition_ERP_protocol,2022.2.5,59.857622647763755,
Celebs/18_Daniel_Radcliffe_0008.jpg,target,3,0,3,0,0,25,25,28,,,,,,,,,,,,,513.482002899982,513.482002899982,513.9817773000104,,,,,,,000639,001,,,2023-06-02_17h03.38.764,face_recognition_ERP_protocol,2022.2.5,59.857622647763755,
Celebs/47_Johnny_Depp_0004.jpg,non_target,3,0,3,0,0,26,26,76,,,,,,,,,,,,,514.4837808999582,514.4837808999582,514.9828704000101,,,,,,,000639,001,,,2023-06-02_17h03.38.764,face_recognition_ERP_protocol,2022.2.5,59.857622647763755,
Celebs/21_Scarlett_Johansson_0007.jpg,non_target,3,0,3,0,0,27,27,118,,,,,,,,,,,,,515.4839478000067,515.4839478000067,515.9839300999884,,,,,,,000639,001,,,2023-06-02_17h03.38.764,face_recognition_ERP_protocol,2022.2.5,59.857622647763755,
Celebs/21_Margot_Robbie_0003.jpg,non_target,3,0,3,0,0,28,28,27,,,,,,,,,,,,,516.4850357999676,516.4850357999676,516.9850364999729,,,,,,,000639,001,,,2023-06-02_17h03.38.764,face_recognition_ERP_protocol,2022.2.5,59.857622647763755,
Celebs/26_Scarlett_Johansson_0003.jpg,non_target,3,0,3,0,0,29,29,105,,,,,,,,,,,,,517.4862507999642,517.4862507999642,517.9861134999665,,,,,,,000639,001,,,2023-06-02_17h03.38.764,face_recognition_ERP_protocol,2022.2.5,59.857622647763755,
Celebs/54_Jackie_Chan_0001.jpg,non_target,3,0,3,0,0,30,30,7,,,,,,,,,,,,,518.4874824999715,518.4874824999715,518.987199199968,,,,,,,000639,001,,,2023-06-02_17h03.38.764,face_recognition_ERP_protocol,2022.2.5,59.857622647763755,
Celebs/39_Jim_Parsons_0004.jpg,non_target,3,0,3,0,0,31,31,88,,,,,,,,,,,,,519.4883528999635,519.4883528999635,519.9883125000051,,,,,,,000639,001,,,2023-06-02_17h03.38.764,face_recognition_ERP_protocol,2022.2.5,59.857622647763755,
Celebs/26_Scarlett_Johansson_0008.jpg,non_target,3,0,3,0,0,32,32,47,,,,,,,,,,,,,520.4894117999938,520.4894117999938,520.9894707999774,,,,,,,000639,001,,,2023-06-02_17h03.38.764,face_recognition_ERP_protocol,2022.2.5,59.857622647763755,
Celebs/40_Jim_Parsons_0015.jpg,non_target,3,0,3,0,0,33,33,45,,,,,,,,,,,,,521.4738394999877,521.4738394999877,521.9738071999745,,,,,,,000639,001,,,2023-06-02_17h03.38.764,face_recognition_ERP_protocol,2022.2.5,59.857622647763755,
Celebs/16_Emma_Stone_0012.jpg,non_target,3,0,3,0,0,34,34,70,,,,,,,,,,,,,522.4774513999582,522.4774513999582,522.9748917999677,,,,,,,000639,001,,,2023-06-02_17h03.38.764,face_recognition_ERP_protocol,2022.2.5,59.857622647763755,
Celebs/20_Scarlett_Johansson_0011.jpg,non_target,3,0,3,0,0,35,35,109,,,,,,,,,,,,,523.476118999999,523.476118999999,523.9763114000089,,,,,,,000639,001,,,2023-06-02_17h03.38.764,face_recognition_ERP_protocol,2022.2.5,59.857622647763755,
Celebs/39_Neil_Patrick_Harris_0010.jpg,non_target,3,0,3,0,0,36,36,94,,,,,,,,,,,,,524.4770239999634,524.4770239999634,524.9770844999584,,,,,,,000639,001,,,2023-06-02_17h03.38.764,face_recognition_ERP_protocol,2022.2.5,59.857622647763755,
Celebs/45_Will_Smith_0014.jpg,non_target,3,0,3,0,0,37,37,59,,,,,,,,,,,,,525.4782285999972,525.4782285999972,525.9781744999927,,,,,,,000639,001,,,2023-06-02_17h03.38.764,face_recognition_ERP_protocol,2022.2.5,59.857622647763755,
Celebs/23_Daniel_Radcliffe_0019.jpg,target,3,0,3,0,0,38,38,6,,,,,,,,,,,,,526.4792754999944,526.4792754999944,526.9792856000131,,,,,,,000639,001,,,2023-06-02_17h03.38.764,face_recognition_ERP_protocol,2022.2.5,59.857622647763755,
Celebs/38_Will_Smith_0013.jpg,non_target,3,0,3,0,0,39,39,13,,,,,,,,,,,,,527.4805856999592,527.4805856999592,527.9803545000032,,,,,,,000639,001,,,2023-06-02_17h03.38.764,face_recognition_ERP_protocol,2022.2.5,59.857622647763755,
Celebs/39_Jim_Parsons_0008.jpg,non_target,3,0,3,0,0,40,40,89,,,,,,,,,,,,,528.4816061999882,528.4816061999882,528.9814917999902,,,,,,,000639,001,,,2023-06-02_17h03.38.764,face_recognition_ERP_protocol,2022.2.5,59.857622647763755,
Celebs/16_Emma_Stone_0014.jpg,non_target,3,0,3,0,0,41,41,40,,,,,,,,,,,,,529.4826415000134,529.4826415000134,529.9825574999559,,,,,,,000639,001,,,2023-06-02_17h03.38.764,face_recognition_ERP_protocol,2022.2.5,59.857622647763755,
Celebs/22_Emma_Watson_0010.jpg,non_target,3,0,3,0,0,42,42,11,,,,,,,,,,,,,530.4836477999925,530.4836477999925,530.9836615999811,,,,,,,000639,001,,,2023-06-02_17h03.38.764,face_recognition_ERP_protocol,2022.2.5,59.857622647763755,
Celebs/14_Emma_Watson_0005.jpg,non_target,3,0,3,0,0,43,43,26,,,,,,,,,,,,,531.4847868999932,531.4847868999932,531.984864900005,,,,,,,000639,001,,,2023-06-02_17h03.38.764,face_recognition_ERP_protocol,2022.2.5,59.857622647763755,
Celebs/58_Jackie_Chan_0005.jpg,non_target,3,0,3,0,0,44,44,3,,,,,,,,,,,,,532.4858272999991,532.4858272999991,532.9858697999734,,,,,,,000639,001,,,2023-06-02_17h03.38.764,face_recognition_ERP_protocol,2022.2.5,59.857622647763755,
Celebs/50_Jackie_Chan_0014.jpg,non_target,3,0,3,0,0,45,45,38,,,,,,,,,,,,,533.4867649999796,533.4867649999796,533.9870005999692,,,,,,,000639,001,,,2023-06-02_17h03.38.764,face_recognition_ERP_protocol,2022.2.5,59.857622647763755,
Celebs/42_Will_Smith_0012.jpg,non_target,3,0,3,0,0,46,46,64,,,,,,,,,,,,,534.488088699989,534.488088699989,534.9880766999559,,,,,,,000639,001,,,2023-06-02_17h03.38.764,face_recognition_ERP_protocol,2022.2.5,59.857622647763755,
Celebs/45_Johnny_Depp_0003.jpg,non_target,3,0,3,0,0,47,47,108,,,,,,,,,,,,,535.4890854000114,535.4890854000114,535.9892157999566,,,,,,,000639,001,,,2023-06-02_17h03.38.764,face_recognition_ERP_protocol,2022.2.5,59.857622647763755,
Celebs/35_Neil_Patrick_Harris_0009.jpg,non_target,3,0,3,0,0,48,48,87,,,,,,,,,,,,,536.4738343000063,536.4738343000063,536.9735327999806,,,,,,,000639,001,,,2023-06-02_17h03.38.764,face_recognition_ERP_protocol,2022.2.5,59.857622647763755,
Celebs/14_Emma_Watson_0004.jpg,non_target,3,0,3,0,0,49,49,14,,,,,,,,,,,,,537.4749194000033,537.4749194000033,537.9746495999862,,,,,,,000639,001,,,2023-06-02_17h03.38.764,face_recognition_ERP_protocol,2022.2.5,59.857622647763755,
Celebs/32_Jim_Parsons_0010.jpg,non_target,3,0,3,0,0,50,50,98,,,,,,,,,,,,,538.476118599996,538.476118599996,538.975733499974,,,,,,,000639,001,,,2023-06-02_17h03.38.764,face_recognition_ERP_protocol,2022.2.5,59.857622647763755,
Celebs/14_Emma_Watson_0013.jpg,non_target,3,0,3,0,0,51,51,20,,,,,,,,,,,,,539.4771055000019,539.4771055000019,539.9768976999912,,,,,,,000639,001,,,2023-06-02_17h03.38.764,face_recognition_ERP_protocol,2022.2.5,59.857622647763755,
Celebs/16_Margot_Robbie_0009.jpg,non_target,3,0,3,0,0,52,52,107,,,,,,,,,,,,,540.4782259999774,540.4782259999774,540.9779519999865,,,,,,,000639,001,,,2023-06-02_17h03.38.764,face_recognition_ERP_protocol,2022.2.5,59.857622647763755,
Celebs/28_Scarlett_Johansson_0005.jpg,non_target,3,0,3,0,0,53,53,50,,,,,,,,,,,,,541.4791507999762,541.4791507999762,541.9790568999597,,,,,,,000639,001,,,2023-06-02_17h03.38.764,face_recognition_ERP_protocol,2022.2.5,59.857622647763755,
Celebs/17_Daniel_Radcliffe_0007.jpg,target,3,0,3,0,0,54,54,19,,,,,,,,,,,,,542.4804233000032,542.4804233000032,542.9801625999971,,,,,,,000639,001,,,2023-06-02_17h03.38.764,face_recognition_ERP_protocol,2022.2.5,59.857622647763755,
Celebs/37_Neil_Patrick_Harris_0014.jpg,non_target,3,0,3,0,0,55,55,37,,,,,,,,,,,,,543.4816315000062,543.4816315000062,543.9812833999749,,,,,,,000639,001,,,2023-06-02_17h03.38.764,face_recognition_ERP_protocol,2022.2.5,59.857622647763755,
Celebs/18_Emma_Watson_0004.jpg,non_target,3,0,3,0,0,56,56,75,,,,,,,,,,,,,544.4826582999667,544.4826582999667,544.9823372999672,,,,,,,000639,001,,,2023-06-02_17h03.38.764,face_recognition_ERP_protocol,2022.2.5,59.857622647763755,
Celebs/48_Johnny_Depp_0003.jpg,non_target,3,0,3,0,0,57,57,55,,,,,,,,,,,,,545.4836675999686,545.4836675999686,545.9838964999653,,,,,,,000639,001,,,2023-06-02_17h03.38.764,face_recognition_ERP_protocol,2022.2.5,59.857622647763755,
Celebs/19_Emma_Stone_0006.jpg,non_target,3,0,3,0,0,58,58,66,,,,,,,,,,,,,546.4845714999828,546.4845714999828,546.9852089000051,,,,,,,000639,001,,,2023-06-02_17h03.38.764,face_recognition_ERP_protocol,2022.2.5,59.857622647763755,
Celebs/14_Emma_Watson_0008.jpg,non_target,3,0,3,0,0,59,59,36,,,,,,,,,,,,,547.4858312999713,547.4858312999713,547.98563869996,,,,,,,000639,001,,,2023-06-02_17h03.38.764,face_recognition_ERP_protocol,2022.2.5,59.857622647763755,
Celebs/43_Will_Smith_0006.jpg,non_target,3,0,3,0,0,60,60,61,,,,,,,,,,,,,548.4865522999899,548.4865522999899,548.986667899997,,,,,,,000639,001,,,2023-06-02_17h03.38.764,face_recognition_ERP_protocol,2022.2.5,59.857622647763755,
Celebs/37_Neil_Patrick_Harris_0010.jpg,non_target,3,0,3,0,0,61,61,93,,,,,,,,,,,,,549.4878450999968,549.4878450999968,549.9878387000063,,,,,,,000639,001,,,2023-06-02_17h03.38.764,face_recognition_ERP_protocol,2022.2.5,59.857622647763755,
Celebs/24_Emma_Stone_0015.jpg,non_target,3,0,3,0,0,62,62,57,,,,,,,,,,,,,550.4881497999886,550.4881497999886,550.9889786000131,,,,,,,000639,001,,,2023-06-02_17h03.38.764,face_recognition_ERP_protocol,2022.2.5,59.857622647763755,
Celebs/40_Jim_Parsons_0004.jpg,non_target,3,0,3,0,0,63,63,73,,,,,,,,,,,,,551.4900930000003,551.4900930000003,551.9734377999557,,,,,,,000639,001,,,2023-06-02_17h03.38.764,face_recognition_ERP_protocol,2022.2.5,59.857622647763755,
Celebs/18_Daniel_Radcliffe_0007.jpg,target,3,0,3,0,0,64,64,81,,,,,,,,,,,,,552.4747473999741,552.4747473999741,552.9744150000042,,,,,,,000639,001,,,2023-06-02_17h03.38.764,face_recognition_ERP_protocol,2022.2.5,59.857622647763755,
Celebs/17_Margot_Robbie_0012.jpg,non_target,3,0,3,0,0,65,65,67,,,,,,,,,,,,,553.4760649999953,553.4760649999953,553.9755153000006,,,,,,,000639,001,,,2023-06-02_17h03.38.764,face_recognition_ERP_protocol,2022.2.5,59.857622647763755,
