image,stimulus,trial_block.thisRepN,trial_block.thisTrialN,trial_block.thisN,trial_block.thisIndex,trials.thisRepN,trials.thisTrialN,trials.thisN,trials.thisIndex,welcome_text.started,instructions_text.started,spacebar_key.started,spacebar_key.keys,spacebar_key.rt,eye_text.started,text.started,closedEyes_text.started,trialImage.started,polygon.started,blank_text.started,trialBlockText.started,new_trialblock.started,new_trialblock.keys,new_trialblock.rt,blank_text.stopped,participant,session,age,gender,date,expName,psychopyVersion,frameRate,
,,,,,,,,,,37.81137759995181,39.79881790000945,39.79881790000945,space,1.1193616000236943,,,,,,,,,,,,000881hhhhhhhhh,001,,,2023-12-10_18h29.06.041,face_recognition_ERP_protocol,2022.2.5,59.98807439173979,
Celebs/24_Daniel_Radcliffe_0017.jpg,target,0,0,0,0,0,0,0,70,,,,,,40.949993500020355,42.952161699999124,44.95445980003569,47.05212400003802,47.05212400003802,47.47390099999029,,,,,,000881hhhhhhhhh,001,,,2023-12-10_18h29.06.041,face_recognition_ERP_protocol,2022.2.5,59.98807439173979,
Celebs/22_Emma_Watson_0010.jpg,non_target,0,0,0,0,0,1,1,10,,,,,,,,,47.973689100006595,47.973689100006595,48.45798579999246,,,,,,000881hhhhhhhhh,001,,,2023-12-10_18h29.06.041,face_recognition_ERP_protocol,2022.2.5,59.98807439173979,
Celebs/31_Neil_Patrick_Harris_0008.jpg,non_target,0,0,0,0,0,2,2,97,,,,,,,,,48.97452180006076,48.97452180006076,49.45932340004947,,,,,,000881hhhhhhhhh,001,,,2023-12-10_18h29.06.041,face_recognition_ERP_protocol,2022.2.5,59.98807439173979,
Celebs/32_Jim_Parsons_0018.jpg,non_target,0,0,0,0,0,3,3,45,,,,,,,,,49.97546610003337,49.97546610003337,50.460356399999,,,,,,000881hhhhhhhhh,001,,,2023-12-10_18h29.06.041,face_recognition_ERP_protocol,2022.2.5,59.98807439173979,
Celebs/44_Will_Smith_0015.jpg,non_target,0,0,0,0,0,4,4,99,,,,,,,,,50.976549300015904,50.976549300015904,51.46164840005804,,,,,,000881hhhhhhhhh,001,,,2023-12-10_18h29.06.041,face_recognition_ERP_protocol,2022.2.5,59.98807439173979,
Celebs/27_Scarlett_Johansson_0012.jpg,non_target,0,0,0,0,0,5,5,76,,,,,,,,,51.96256839996204,51.96256839996204,52.46266249998007,,,,,,000881hhhhhhhhh,001,,,2023-12-10_18h29.06.041,face_recognition_ERP_protocol,2022.2.5,59.98807439173979,
Celebs/39_Neil_Patrick_Harris_0001.jpg,non_target,0,0,0,0,0,6,6,4,,,,,,,,,52.97875260002911,52.97875260002911,53.46370940003544,,,,,,000881hhhhhhhhh,001,,,2023-12-10_18h29.06.041,face_recognition_ERP_protocol,2022.2.5,59.98807439173979,
Celebs/52_Jackie_Chan_0002.jpg,non_target,0,0,0,0,0,7,7,67,,,,,,,,,53.9829414000269,53.9829414000269,54.46470170002431,,,,,,000881hhhhhhhhh,001,,,2023-12-10_18h29.06.041,face_recognition_ERP_protocol,2022.2.5,59.98807439173979,
Celebs/16_Emma_Stone_0010.jpg,non_target,0,0,0,0,0,8,8,93,,,,,,,,,54.98351150006056,54.98351150006056,55.46591350005474,,,,,,000881hhhhhhhhh,001,,,2023-12-10_18h29.06.041,face_recognition_ERP_protocol,2022.2.5,59.98807439173979,
Celebs/26_Scarlett_Johansson_0008.jpg,non_target,0,0,0,0,0,9,9,46,,,,,,,,,55.98220209998544,55.98220209998544,56.46705239999574,,,,,,000881hhhhhhhhh,001,,,2023-12-10_18h29.06.041,face_recognition_ERP_protocol,2022.2.5,59.98807439173979,
Celebs/22_Emma_Watson_0001.jpg,non_target,0,0,0,0,0,10,10,57,,,,,,,,,56.98313579999376,56.98313579999376,57.46815059997607,,,,,,000881hhhhhhhhh,001,,,2023-12-10_18h29.06.041,face_recognition_ERP_protocol,2022.2.5,59.98807439173979,
Celebs/44_Will_Smith_0007.jpg,non_target,0,0,0,0,0,11,11,64,,,,,,,,,57.986127999960445,57.986127999960445,58.469212700030766,,,,,,000881hhhhhhhhh,001,,,2023-12-10_18h29.06.041,face_recognition_ERP_protocol,2022.2.5,59.98807439173979,
Celebs/36_Neil_Patrick_Harris_0010.jpg,non_target,0,0,0,0,0,12,12,77,,,,,,,,,58.98518720001448,58.98518720001448,59.47015840001404,,,,,,000881hhhhhhhhh,001,,,2023-12-10_18h29.06.041,face_recognition_ERP_protocol,2022.2.5,59.98807439173979,
Celebs/35_Neil_Patrick_Harris_0009.jpg,non_target,0,0,0,0,0,13,13,85,,,,,,,,,59.998980200034566,59.998980200034566,60.471260700025596,,,,,,000881hhhhhhhhh,001,,,2023-12-10_18h29.06.041,face_recognition_ERP_protocol,2022.2.5,59.98807439173979,
Celebs/20_Scarlett_Johansson_0011.jpg,non_target,0,0,0,0,0,14,14,107,,,,,,,,,60.98761589999776,60.98761589999776,61.472451800014824,,,,,,000881hhhhhhhhh,001,,,2023-12-10_18h29.06.041,face_recognition_ERP_protocol,2022.2.5,59.98807439173979,
Celebs/17_Emma_Watson_0006.jpg,non_target,0,0,0,0,0,15,15,88,,,,,,,,,61.98914269998204,61.98914269998204,62.47356990003027,,,,,,000881hhhhhhhhh,001,,,2023-12-10_18h29.06.041,face_recognition_ERP_protocol,2022.2.5,59.98807439173979,
Celebs/42_Will_Smith_0012.jpg,non_target,0,0,0,0,0,16,16,63,,,,,,,,,62.989855500054546,62.989855500054546,63.457853400032036,,,,,,000881hhhhhhhhh,001,,,2023-12-10_18h29.06.041,face_recognition_ERP_protocol,2022.2.5,59.98807439173979,
Celebs/49_Johnny_Depp_0013.jpg,non_target,0,0,0,0,0,17,17,32,,,,,,,,,63.97661789995618,63.97661789995618,64.45886879996397,,,,,,000881hhhhhhhhh,001,,,2023-12-10_18h29.06.041,face_recognition_ERP_protocol,2022.2.5,59.98807439173979,
Celebs/17_Margot_Robbie_0014.jpg,non_target,0,0,0,0,0,18,18,112,,,,,,,,,64.97522939997725,64.97522939997725,65.4602053000126,,,,,,000881hhhhhhhhh,001,,,2023-12-10_18h29.06.041,face_recognition_ERP_protocol,2022.2.5,59.98807439173979,
Celebs/36_Jim_Parsons_0011.jpg,non_target,0,0,0,0,0,19,19,84,,,,,,,,,65.97625940002035,65.97625940002035,66.4611612999579,,,,,,000881hhhhhhhhh,001,,,2023-12-10_18h29.06.041,face_recognition_ERP_protocol,2022.2.5,59.98807439173979,
Celebs/34_Neil_Patrick_Harris_0007.jpg,non_target,0,0,0,0,0,20,20,116,,,,,,,,,66.97722520004027,66.97722520004027,67.46216500003356,,,,,,000881hhhhhhhhh,001,,,2023-12-10_18h29.06.041,face_recognition_ERP_protocol,2022.2.5,59.98807439173979,
Celebs/21_Daniel_Radcliffe_0012.jpg,target,0,0,0,0,0,21,21,115,,,,,,,,,67.98014800006058,67.98014800006058,68.46351609996054,,,,,,000881hhhhhhhhh,001,,,2023-12-10_18h29.06.041,face_recognition_ERP_protocol,2022.2.5,59.98807439173979,
Celebs/21_Daniel_Radcliffe_0009.jpg,target,0,0,0,0,0,22,22,81,,,,,,,,,68.9816721000243,68.9816721000243,69.46453170001041,,,,,,000881hhhhhhhhh,001,,,2023-12-10_18h29.06.041,face_recognition_ERP_protocol,2022.2.5,59.98807439173979,
Celebs/39_Jim_Parsons_0001.jpg,non_target,0,0,0,0,0,23,23,48,,,,,,,,,69.98185240000021,69.98185240000021,70.46585429995321,,,,,,000881hhhhhhhhh,001,,,2023-12-10_18h29.06.041,face_recognition_ERP_protocol,2022.2.5,59.98807439173979,
Celebs/22_Emma_Watson_0003.jpg,non_target,0,0,0,0,0,24,24,89,,,,,,,,,70.98175959999207,70.98175959999207,71.46673360001296,,,,,,000881hhhhhhhhh,001,,,2023-12-10_18h29.06.041,face_recognition_ERP_protocol,2022.2.5,59.98807439173979,
Celebs/57_Jackie_Chan_0010.jpg,non_target,0,0,0,0,0,25,25,61,,,,,,,,,71.98514879995491,71.98514879995491,72.46780960005708,,,,,,000881hhhhhhhhh,001,,,2023-12-10_18h29.06.041,face_recognition_ERP_protocol,2022.2.5,59.98807439173979,
Celebs/18_Daniel_Radcliffe_0002.jpg,target,0,0,0,0,0,26,26,119,,,,,,,,,72.98625079996418,72.98625079996418,73.46886629995424,,,,,,000881hhhhhhhhh,001,,,2023-12-10_18h29.06.041,face_recognition_ERP_protocol,2022.2.5,59.98807439173979,
Celebs/45_Will_Smith_0014.jpg,non_target,0,0,0,0,0,27,27,58,,,,,,,,,73.98508769995533,73.98508769995533,74.470016199979,,,,,,000881hhhhhhhhh,001,,,2023-12-10_18h29.06.041,face_recognition_ERP_protocol,2022.2.5,59.98807439173979,
Celebs/55_Jackie_Chan_0015.jpg,non_target,0,0,0,0,0,28,28,29,,,,,,,,,74.98628039995674,74.98628039995674,75.47133490000851,,,,,,000881hhhhhhhhh,001,,,2023-12-10_18h29.06.041,face_recognition_ERP_protocol,2022.2.5,59.98807439173979,
Celebs/50_Johnny_Depp_0004.jpg,non_target,0,0,0,0,0,29,29,38,,,,,,,,,75.97235110006295,75.97235110006295,76.47198839997873,,,,,,000881hhhhhhhhh,001,,,2023-12-10_18h29.06.041,face_recognition_ERP_protocol,2022.2.5,59.98807439173979,
Celebs/47_Johnny_Depp_0004.jpg,non_target,0,0,0,0,0,30,30,75,,,,,,,,,76.98825140006375,76.98825140006375,77.47344520001207,,,,,,000881hhhhhhhhh,001,,,2023-12-10_18h29.06.041,face_recognition_ERP_protocol,2022.2.5,59.98807439173979,
Celebs/32_Jim_Parsons_0010.jpg,non_target,0,0,0,0,0,31,31,96,,,,,,,,,77.9896035999991,77.9896035999991,78.45751890004613,,,,,,000881hhhhhhhhh,001,,,2023-12-10_18h29.06.041,face_recognition_ERP_protocol,2022.2.5,59.98807439173979,
Celebs/22_Margot_Robbie_0010.jpg,non_target,0,0,0,0,0,32,32,17,,,,,,,,,78.97609000001103,78.97609000001103,79.45876770000905,,,,,,000881hhhhhhhhh,001,,,2023-12-10_18h29.06.041,face_recognition_ERP_protocol,2022.2.5,59.98807439173979,
Celebs/23_Daniel_Radcliffe_0002.jpg,target,0,0,0,0,0,33,33,118,,,,,,,,,79.95992970000952,79.95992970000952,80.45964420004748,,,,,,000881hhhhhhhhh,001,,,2023-12-10_18h29.06.041,face_recognition_ERP_protocol,2022.2.5,59.98807439173979,
Celebs/44_Will_Smith_0006.jpg,non_target,0,0,0,0,0,34,34,40,,,,,,,,,80.97888409998268,80.97888409998268,81.46081109996885,,,,,,000881hhhhhhhhh,001,,,2023-12-10_18h29.06.041,face_recognition_ERP_protocol,2022.2.5,59.98807439173979,
Celebs/15_Margot_Robbie_0005.jpg,non_target,0,0,0,0,0,35,35,78,,,,,,,,,81.97752760001458,81.97752760001458,82.46201659995131,,,,,,000881hhhhhhhhh,001,,,2023-12-10_18h29.06.041,face_recognition_ERP_protocol,2022.2.5,59.98807439173979,
Celebs/21_Daniel_Radcliffe_0002.jpg,target,0,0,0,0,0,36,36,59,,,,,,,,,82.9783679000102,82.9783679000102,83.46322459995281,,,,,,000881hhhhhhhhh,001,,,2023-12-10_18h29.06.041,face_recognition_ERP_protocol,2022.2.5,59.98807439173979,
Celebs/20_Emma_Stone_0005.jpg,non_target,0,0,0,0,0,37,37,62,,,,,,,,,83.98216170002706,83.98216170002706,84.46424630004913,,,,,,000881hhhhhhhhh,001,,,2023-12-10_18h29.06.041,face_recognition_ERP_protocol,2022.2.5,59.98807439173979,
Celebs/40_Will_Smith_0012.jpg,non_target,0,0,0,0,0,38,38,108,,,,,,,,,84.98047299997415,84.98047299997415,85.46522759995423,,,,,,000881hhhhhhhhh,001,,,2023-12-10_18h29.06.041,face_recognition_ERP_protocol,2022.2.5,59.98807439173979,
Celebs/21_Margot_Robbie_0003.jpg,non_target,0,0,0,0,0,39,39,26,,,,,,,,,85.98392989998683,85.98392989998683,86.46637040004134,,,,,,000881hhhhhhhhh,001,,,2023-12-10_18h29.06.041,face_recognition_ERP_protocol,2022.2.5,59.98807439173979,
Celebs/36_Neil_Patrick_Harris_0007.jpg,non_target,0,0,0,0,0,40,40,5,,,,,,,,,86.98247919999994,86.98247919999994,87.46761689998675,,,,,,000881hhhhhhhhh,001,,,2023-12-10_18h29.06.041,face_recognition_ERP_protocol,2022.2.5,59.98807439173979,
Celebs/33_Neil_Patrick_Harris_0011.jpg,non_target,0,0,0,0,0,41,41,110,,,,,,,,,87.98347119998652,87.98347119998652,88.46839279995766,,,,,,000881hhhhhhhhh,001,,,2023-12-10_18h29.06.041,face_recognition_ERP_protocol,2022.2.5,59.98807439173979,
Celebs/26_Scarlett_Johansson_0003.jpg,non_target,0,0,0,0,0,42,42,103,,,,,,,,,88.98620429995935,88.98620429995935,89.46954409999307,,,,,,000881hhhhhhhhh,001,,,2023-12-10_18h29.06.041,face_recognition_ERP_protocol,2022.2.5,59.98807439173979,
Celebs/18_Daniel_Radcliffe_0008.jpg,target,0,0,0,0,0,43,43,27,,,,,,,,,89.98726960003842,89.98726960003842,90.47059180005454,,,,,,000881hhhhhhhhh,001,,,2023-12-10_18h29.06.041,face_recognition_ERP_protocol,2022.2.5,59.98807439173979,
Celebs/47_Johnny_Depp_0009.jpg,non_target,0,0,0,0,0,44,44,22,,,,,,,,,90.98728550004307,90.98728550004307,91.47196700004861,,,,,,000881hhhhhhhhh,001,,,2023-12-10_18h29.06.041,face_recognition_ERP_protocol,2022.2.5,59.98807439173979,
Celebs/34_Neil_Patrick_Harris_0004.jpg,non_target,0,0,0,0,0,45,45,102,,,,,,,,,91.9731235000072,91.9731235000072,92.47329330001958,,,,,,000881hhhhhhhhh,001,,,2023-12-10_18h29.06.041,face_recognition_ERP_protocol,2022.2.5,59.98807439173979,
Celebs/20_Margot_Robbie_0006.jpg,non_target,0,0,0,0,0,46,46,34,,,,,,,,,92.9893617000198,92.9893617000198,93.4742538999999,,,,,,000881hhhhhhhhh,001,,,2023-12-10_18h29.06.041,face_recognition_ERP_protocol,2022.2.5,59.98807439173979,
Celebs/21_Scarlett_Johansson_0007.jpg,non_target,0,0,0,0,0,47,47,117,,,,,,,,,93.97606799995992,93.97606799995992,94.45850299997255,,,,,,000881hhhhhhhhh,001,,,2023-12-10_18h29.06.041,face_recognition_ERP_protocol,2022.2.5,59.98807439173979,
Celebs/14_Emma_Watson_0005.jpg,non_target,0,0,0,0,0,48,48,25,,,,,,,,,94.97743019997142,94.97743019997142,95.45960719999857,,,,,,000881hhhhhhhhh,001,,,2023-12-10_18h29.06.041,face_recognition_ERP_protocol,2022.2.5,59.98807439173979,
Celebs/43_Will_Smith_0006.jpg,non_target,0,0,0,0,0,49,49,60,,,,,,,,,95.96069710003212,95.96069710003212,96.46062120003626,,,,,,000881hhhhhhhhh,001,,,2023-12-10_18h29.06.041,face_recognition_ERP_protocol,2022.2.5,59.98807439173979,
Celebs/24_Scarlett_Johansson_0011.jpg,non_target,0,0,0,0,0,50,50,98,,,,,,,,,96.97716729994863,96.97716729994863,97.46199610002805,,,,,,000881hhhhhhhhh,001,,,2023-12-10_18h29.06.041,face_recognition_ERP_protocol,2022.2.5,59.98807439173979,
Celebs/15_Margot_Robbie_0012.jpg,non_target,0,0,0,0,0,51,51,80,,,,,,,,,97.97826320002787,97.97826320002787,98.46281629998703,,,,,,000881hhhhhhhhh,001,,,2023-12-10_18h29.06.041,face_recognition_ERP_protocol,2022.2.5,59.98807439173979,
Celebs/14_Emma_Watson_0013.jpg,non_target,0,0,0,0,0,52,52,19,,,,,,,,,98.98159260000102,98.98159260000102,99.46401390002575,,,,,,000881hhhhhhhhh,001,,,2023-12-10_18h29.06.041,face_recognition_ERP_protocol,2022.2.5,59.98807439173979,
Celebs/48_Johnny_Depp_0001.jpg,non_target,0,0,0,0,0,53,53,104,,,,,,,,,99.9820532000158,99.9820532000158,100.46532229997683,,,,,,000881hhhhhhhhh,001,,,2023-12-10_18h29.06.041,face_recognition_ERP_protocol,2022.2.5,59.98807439173979,
Celebs/17_Margot_Robbie_0006.jpg,non_target,0,0,0,0,0,54,54,16,,,,,,,,,100.96562459995039,100.96562459995039,101.46590279997326,,,,,,000881hhhhhhhhh,001,,,2023-12-10_18h29.06.041,face_recognition_ERP_protocol,2022.2.5,59.98807439173979,
Celebs/37_Will_Smith_0015.jpg,non_target,0,0,0,0,0,55,55,111,,,,,,,,,101.98465200001374,101.98465200001374,102.46704260003753,,,,,,000881hhhhhhhhh,001,,,2023-12-10_18h29.06.041,face_recognition_ERP_protocol,2022.2.5,59.98807439173979,
Celebs/54_Jackie_Chan_0001.jpg,non_target,0,0,0,0,0,56,56,7,,,,,,,,,102.9841970000416,102.9841970000416,103.46815940004308,,,,,,000881hhhhhhhhh,001,,,2023-12-10_18h29.06.041,face_recognition_ERP_protocol,2022.2.5,59.98807439173979,
Celebs/16_Emma_Stone_0008.jpg,non_target,0,0,0,0,0,57,57,47,,,,,,,,,103.9695337000303,103.9695337000303,104.46937679999974,,,,,,000881hhhhhhhhh,001,,,2023-12-10_18h29.06.041,face_recognition_ERP_protocol,2022.2.5,59.98807439173979,
Celebs/48_Johnny_Depp_0005.jpg,non_target,0,0,0,0,0,58,58,53,,,,,,,,,104.98572710005101,104.98572710005101,105.4703188999556,,,,,,000881hhhhhhhhh,001,,,2023-12-10_18h29.06.041,face_recognition_ERP_protocol,2022.2.5,59.98807439173979,
Celebs/23_Emma_Stone_0014.jpg,non_target,0,0,0,0,0,59,59,11,,,,,,,,,105.97144510003272,105.97144510003272,106.47156089998316,,,,,,000881hhhhhhhhh,001,,,2023-12-10_18h29.06.041,face_recognition_ERP_protocol,2022.2.5,59.98807439173979,
Celebs/33_Jim_Parsons_0011.jpg,non_target,0,0,0,0,0,60,60,33,,,,,,,,,106.98781500000041,106.98781500000041,107.47284079995006,,,,,,000881hhhhhhhhh,001,,,2023-12-10_18h29.06.041,face_recognition_ERP_protocol,2022.2.5,59.98807439173979,
Celebs/22_Scarlett_Johansson_0005.jpg,non_target,0,0,0,0,0,61,61,43,,,,,,,,,107.98889799998142,107.98889799998142,108.47380260005593,,,,,,000881hhhhhhhhh,001,,,2023-12-10_18h29.06.041,face_recognition_ERP_protocol,2022.2.5,59.98807439173979,
Celebs/16_Margot_Robbie_0009.jpg,non_target,0,0,0,0,0,62,62,105,,,,,,,,,108.98995570000261,108.98995570000261,109.45804890000727,,,,,,000881hhhhhhhhh,001,,,2023-12-10_18h29.06.041,face_recognition_ERP_protocol,2022.2.5,59.98807439173979,
Celebs/50_Johnny_Depp_0008.jpg,non_target,0,0,0,0,0,63,63,82,,,,,,,,,109.95922520000022,109.95922520000022,110.45936099998653,,,,,,000881hhhhhhhhh,001,,,2023-12-10_18h29.06.041,face_recognition_ERP_protocol,2022.2.5,59.98807439173979,
Celebs/50_Jackie_Chan_0012.jpg,non_target,0,0,0,0,0,64,64,42,,,,,,,,,110.9966089000227,110.9966089000227,111.46028690005187,,,,,,000881hhhhhhhhh,001,,,2023-12-10_18h29.06.041,face_recognition_ERP_protocol,2022.2.5,59.98807439173979,
Celebs/21_Daniel_Radcliffe_0008.jpg,target,0,0,0,0,0,65,65,15,,,,,,,,,111.97905099997297,111.97905099997297,112.46151960000861,,,,,,000881hhhhhhhhh,001,,,2023-12-10_18h29.06.041,face_recognition_ERP_protocol,2022.2.5,59.98807439173979,
Celebs/39_Jim_Parsons_0010.jpg,non_target,0,0,0,0,0,66,66,0,,,,,,,,,112.9809275000589,112.9809275000589,113.46163779997732,,,,,,000881hhhhhhhhh,001,,,2023-12-10_18h29.06.041,face_recognition_ERP_protocol,2022.2.5,59.98807439173979,
Celebs/43_Will_Smith_0007.jpg,non_target,0,0,0,0,0,67,67,73,,,,,,,,,113.96293959999457,113.96293959999457,114.46277720003854,,,,,,000881hhhhhhhhh,001,,,2023-12-10_18h29.06.041,face_recognition_ERP_protocol,2022.2.5,59.98807439173979,
Celebs/39_Jim_Parsons_0008.jpg,non_target,0,0,0,0,0,68,68,87,,,,,,,,,114.96389640006237,114.96389640006237,115.46387079998385,,,,,,000881hhhhhhhhh,001,,,2023-12-10_18h29.06.041,face_recognition_ERP_protocol,2022.2.5,59.98807439173979,
Celebs/23_Daniel_Radcliffe_0010.jpg,target,0,0,0,0,0,69,69,14,,,,,,,,,115.98033669998404,115.98033669998404,116.46491129999049,,,,,,000881hhhhhhhhh,001,,,2023-12-10_18h29.06.041,face_recognition_ERP_protocol,2022.2.5,59.98807439173979,
Celebs/38_Will_Smith_0013.jpg,non_target,0,0,0,0,0,70,70,12,,,,,,,,,116.98144819994923,116.98144819994923,117.4660145000089,,,,,,000881hhhhhhhhh,001,,,2023-12-10_18h29.06.041,face_recognition_ERP_protocol,2022.2.5,59.98807439173979,
Celebs/43_Will_Smith_0010.jpg,non_target,0,0,0,0,0,71,71,21,,,,,,,,,117.96716580004431,117.96716580004431,118.46715150005184,,,,,,000881hhhhhhhhh,001,,,2023-12-10_18h29.06.041,face_recognition_ERP_protocol,2022.2.5,59.98807439173979,
Celebs/29_Scarlett_Johansson_0016.jpg,non_target,0,0,0,0,0,72,72,2,,,,,,,,,118.96818460000213,118.96818460000213,119.46825619996525,,,,,,000881hhhhhhhhh,001,,,2023-12-10_18h29.06.041,face_recognition_ERP_protocol,2022.2.5,59.98807439173979,
Celebs/17_Daniel_Radcliffe_0007.jpg,target,0,0,0,0,0,73,73,18,,,,,,,,,119.96926809998695,119.96926809998695,120.46924020000733,,,,,,000881hhhhhhhhh,001,,,2023-12-10_18h29.06.041,face_recognition_ERP_protocol,2022.2.5,59.98807439173979,
Celebs/55_Jackie_Chan_0003.jpg,non_target,0,0,0,0,0,74,74,28,,,,,,,,,120.97036040003877,120.97036040003877,121.47040130000096,,,,,,000881hhhhhhhhh,001,,,2023-12-10_18h29.06.041,face_recognition_ERP_protocol,2022.2.5,59.98807439173979,
Celebs/21_Emma_Stone_0003.jpg,non_target,0,0,0,0,0,75,75,24,,,,,,,,,121.9714586000191,121.9714586000191,122.47149919997901,,,,,,000881hhhhhhhhh,001,,,2023-12-10_18h29.06.041,face_recognition_ERP_protocol,2022.2.5,59.98807439173979,
Celebs/51_Jackie_Chan_0006.jpg,non_target,0,0,0,0,0,76,76,95,,,,,,,,,122.97258499998134,122.97258499998134,123.47259170003235,,,,,,000881hhhhhhhhh,001,,,2023-12-10_18h29.06.041,face_recognition_ERP_protocol,2022.2.5,59.98807439173979,
Celebs/57_Jackie_Chan_0008.jpg,non_target,0,0,0,0,0,77,77,71,,,,,,,,,123.97387380001601,123.97387380001601,124.47370219998993,,,,,,000881hhhhhhhhh,001,,,2023-12-10_18h29.06.041,face_recognition_ERP_protocol,2022.2.5,59.98807439173979,
Celebs/48_Johnny_Depp_0003.jpg,non_target,0,0,0,0,0,78,78,54,,,,,,,,,124.97481150005478,124.97481150005478,125.45809820003342,,,,,,000881hhhhhhhhh,001,,,2023-12-10_18h29.06.041,face_recognition_ERP_protocol,2022.2.5,59.98807439173979,
Celebs/50_Johnny_Depp_0010.jpg,non_target,0,0,0,0,0,79,79,113,,,,,,,,,125.97482380003203,125.97482380003203,126.45919169997796,,,,,,000881hhhhhhhhh,001,,,2023-12-10_18h29.06.041,face_recognition_ERP_protocol,2022.2.5,59.98807439173979,
Celebs/14_Emma_Watson_0004.jpg,non_target,0,0,0,0,0,80,80,13,,,,,,,,,126.96042060002219,126.96042060002219,127.46029790001921,,,,,,000881hhhhhhhhh,001,,,2023-12-10_18h29.06.041,face_recognition_ERP_protocol,2022.2.5,59.98807439173979,
Celebs/24_Scarlett_Johansson_0001.jpg,non_target,0,0,0,0,0,81,81,9,,,,,,,,,127.9613833000185,127.9613833000185,128.46136419998948,,,,,,000881hhhhhhhhh,001,,,2023-12-10_18h29.06.041,face_recognition_ERP_protocol,2022.2.5,59.98807439173979,
Celebs/32_Jim_Parsons_0016.jpg,non_target,0,0,0,0,0,82,82,100,,,,,,,,,128.9624168999726,128.9624168999726,129.46244599996135,,,,,,000881hhhhhhhhh,001,,,2023-12-10_18h29.06.041,face_recognition_ERP_protocol,2022.2.5,59.98807439173979,
Celebs/19_Emma_Stone_0006.jpg,non_target,0,0,0,0,0,83,83,65,,,,,,,,,129.96364670002367,129.96364670002367,130.46361550001893,,,,,,000881hhhhhhhhh,001,,,2023-12-10_18h29.06.041,face_recognition_ERP_protocol,2022.2.5,59.98807439173979,
Celebs/37_Neil_Patrick_Harris_0014.jpg,non_target,0,0,0,0,0,84,84,36,,,,,,,,,130.96550569997635,130.96550569997635,131.4652271999512,,,,,,000881hhhhhhhhh,001,,,2023-12-10_18h29.06.041,face_recognition_ERP_protocol,2022.2.5,59.98807439173979,
Celebs/47_Johnny_Depp_0003.jpg,non_target,0,0,0,0,0,85,85,8,,,,,,,,,131.96641019999515,131.96641019999515,132.4662221999606,,,,,,000881hhhhhhhhh,001,,,2023-12-10_18h29.06.041,face_recognition_ERP_protocol,2022.2.5,59.98807439173979,
Celebs/54_Jackie_Chan_0014.jpg,non_target,0,0,0,0,0,86,86,109,,,,,,,,,132.9852203000337,132.9852203000337,133.46734299999662,,,,,,000881hhhhhhhhh,001,,,2023-12-10_18h29.06.041,face_recognition_ERP_protocol,2022.2.5,59.98807439173979,
Celebs/58_Jackie_Chan_0005.jpg,non_target,0,0,0,0,0,87,87,3,,,,,,,,,133.98650550004095,133.98650550004095,134.46879379998427,,,,,,000881hhhhhhhhh,001,,,2023-12-10_18h29.06.041,face_recognition_ERP_protocol,2022.2.5,59.98807439173979,
Celebs/14_Emma_Watson_0008.jpg,non_target,0,0,0,0,0,88,88,35,,,,,,,,,134.9700193000026,134.9700193000026,135.4699359999504,,,,,,000881hhhhhhhhh,001,,,2023-12-10_18h29.06.041,face_recognition_ERP_protocol,2022.2.5,59.98807439173979,
Celebs/29_Scarlett_Johansson_0010.jpg,non_target,0,0,0,0,0,89,89,83,,,,,,,,,135.98616029997356,135.98616029997356,136.47159770003054,,,,,,000881hhhhhhhhh,001,,,2023-12-10_18h29.06.041,face_recognition_ERP_protocol,2022.2.5,59.98807439173979,
Celebs/25_Scarlett_Johansson_0010.jpg,non_target,0,0,0,0,0,90,90,31,,,,,,,,,136.98716789996251,136.98716789996251,137.47183509997558,,,,,,000881hhhhhhhhh,001,,,2023-12-10_18h29.06.041,face_recognition_ERP_protocol,2022.2.5,59.98807439173979,
Celebs/38_Neil_Patrick_Harris_0006.jpg,non_target,0,0,0,0,0,91,91,30,,,,,,,,,137.98826530005317,137.98826530005317,138.4729238,,,,,,000881hhhhhhhhh,001,,,2023-12-10_18h29.06.041,face_recognition_ERP_protocol,2022.2.5,59.98807439173979,
Celebs/19_Margot_Robbie_0004.jpg,non_target,0,0,0,0,0,92,92,41,,,,,,,,,138.9903428000398,138.9903428000398,139.45773070002906,,,,,,000881hhhhhhhhh,001,,,2023-12-10_18h29.06.041,face_recognition_ERP_protocol,2022.2.5,59.98807439173979,
Celebs/18_Daniel_Radcliffe_0007.jpg,target,0,0,0,0,0,93,93,79,,,,,,,,,139.9743768000044,139.9743768000044,140.45884279999882,,,,,,000881hhhhhhhhh,001,,,2023-12-10_18h29.06.041,face_recognition_ERP_protocol,2022.2.5,59.98807439173979,
Celebs/38_Jim_Parsons_0003.jpg,non_target,0,0,0,0,0,94,94,52,,,,,,,,,140.9598682000069,140.9598682000069,141.45988330000546,,,,,,000881hhhhhhhhh,001,,,2023-12-10_18h29.06.041,face_recognition_ERP_protocol,2022.2.5,59.98807439173979,
Celebs/20_Margot_Robbie_0004.jpg,non_target,0,0,0,0,0,95,95,114,,,,,,,,,141.97878740006126,141.97878740006126,142.46088719996624,,,,,,000881hhhhhhhhh,001,,,2023-12-10_18h29.06.041,face_recognition_ERP_protocol,2022.2.5,59.98807439173979,
Celebs/50_Johnny_Depp_0018.jpg,non_target,0,0,0,0,0,96,96,23,,,,,,,,,142.97876259998884,142.97876259998884,143.46196980006061,,,,,,000881hhhhhhhhh,001,,,2023-12-10_18h29.06.041,face_recognition_ERP_protocol,2022.2.5,59.98807439173979,
Celebs/55_Jackie_Chan_0008.jpg,non_target,0,0,0,0,0,97,97,90,,,,,,,,,143.97934810002334,143.97934810002334,144.4630318999989,,,,,,000881hhhhhhhhh,001,,,2023-12-10_18h29.06.041,face_recognition_ERP_protocol,2022.2.5,59.98807439173979,
Celebs/19_Margot_Robbie_0001.jpg,non_target,0,0,0,0,0,98,98,50,,,,,,,,,144.98180880001746,144.98180880001746,145.46409020002466,,,,,,000881hhhhhhhhh,001,,,2023-12-10_18h29.06.041,face_recognition_ERP_protocol,2022.2.5,59.98807439173979,
Celebs/23_Daniel_Radcliffe_0019.jpg,target,0,0,0,0,0,99,99,6,,,,,,,,,145.98029289999977,145.98029289999977,146.4651483000489,,,,,,000881hhhhhhhhh,001,,,2023-12-10_18h29.06.041,face_recognition_ERP_protocol,2022.2.5,59.98807439173979,
Celebs/28_Scarlett_Johansson_0005.jpg,non_target,0,0,0,0,0,100,100,49,,,,,,,,,146.98162079998292,146.98162079998292,147.46648209996056,,,,,,000881hhhhhhhhh,001,,,2023-12-10_18h29.06.041,face_recognition_ERP_protocol,2022.2.5,59.98807439173979,
Celebs/39_Neil_Patrick_Harris_0010.jpg,non_target,0,0,0,0,0,101,101,92,,,,,,,,,147.96752089995425,147.96752089995425,148.46733230003156,,,,,,000881hhhhhhhhh,001,,,2023-12-10_18h29.06.041,face_recognition_ERP_protocol,2022.2.5,59.98807439173979,
Celebs/18_Emma_Stone_0016.jpg,non_target,0,0,0,0,0,102,102,51,,,,,,,,,148.9863730999641,148.9863730999641,149.46844009996857,,,,,,000881hhhhhhhhh,001,,,2023-12-10_18h29.06.041,face_recognition_ERP_protocol,2022.2.5,59.98807439173979,
Celebs/40_Jim_Parsons_0004.jpg,non_target,0,0,0,0,0,103,103,72,,,,,,,,,149.98722939996514,149.98722939996514,150.46948800003156,,,,,,000881hhhhhhhhh,001,,,2023-12-10_18h29.06.041,face_recognition_ERP_protocol,2022.2.5,59.98807439173979,
Celebs/24_Emma_Stone_0015.jpg,non_target,0,0,0,0,0,104,104,56,,,,,,,,,150.98601400002372,150.98601400002372,151.47059849998914,,,,,,000881hhhhhhhhh,001,,,2023-12-10_18h29.06.041,face_recognition_ERP_protocol,2022.2.5,59.98807439173979,
Celebs/21_Emma_Watson_0004.jpg,non_target,0,0,0,0,0,105,105,20,,,,,,,,,151.9895564999897,151.9895564999897,152.4719173000194,,,,,,000881hhhhhhhhh,001,,,2023-12-10_18h29.06.041,face_recognition_ERP_protocol,2022.2.5,59.98807439173979,
Celebs/45_Johnny_Depp_0003.jpg,non_target,0,0,0,0,0,106,106,106,,,,,,,,,152.98906529997475,152.98906529997475,153.47295009996742,,,,,,000881hhhhhhhhh,001,,,2023-12-10_18h29.06.041,face_recognition_ERP_protocol,2022.2.5,59.98807439173979,
Celebs/18_Emma_Watson_0004.jpg,non_target,0,0,0,0,0,107,107,74,,,,,,,,,153.9895032000495,153.9895032000495,154.47417669999413,,,,,,000881hhhhhhhhh,001,,,2023-12-10_18h29.06.041,face_recognition_ERP_protocol,2022.2.5,59.98807439173979,
Celebs/16_Emma_Stone_0012.jpg,non_target,0,0,0,0,0,108,108,69,,,,,,,,,154.97606849996373,154.97606849996373,155.45855730003677,,,,,,000881hhhhhhhhh,001,,,2023-12-10_18h29.06.041,face_recognition_ERP_protocol,2022.2.5,59.98807439173979,
Celebs/50_Jackie_Chan_0014.jpg,non_target,0,0,0,0,0,109,109,37,,,,,,,,,155.99481189996004,155.99481189996004,156.45959430001676,,,,,,000881hhhhhhhhh,001,,,2023-12-10_18h29.06.041,face_recognition_ERP_protocol,2022.2.5,59.98807439173979,
Celebs/40_Jim_Parsons_0015.jpg,non_target,0,0,0,0,0,110,110,44,,,,,,,,,156.97600040002726,156.97600040002726,157.460600099992,,,,,,000881hhhhhhhhh,001,,,2023-12-10_18h29.06.041,face_recognition_ERP_protocol,2022.2.5,59.98807439173979,
Celebs/16_Emma_Stone_0014.jpg,non_target,0,0,0,0,0,111,111,39,,,,,,,,,157.9781168999616,157.9781168999616,158.46172719995957,,,,,,000881hhhhhhhhh,001,,,2023-12-10_18h29.06.041,face_recognition_ERP_protocol,2022.2.5,59.98807439173979,
Celebs/45_Will_Smith_0010.jpg,non_target,0,0,0,0,0,112,112,68,,,,,,,,,158.97876069997437,158.97876069997437,159.46447550004814,,,,,,000881hhhhhhhhh,001,,,2023-12-10_18h29.06.041,face_recognition_ERP_protocol,2022.2.5,59.98807439173979,
Celebs/20_Emma_Watson_0007.jpg,non_target,0,0,0,0,0,113,113,94,,,,,,,,,159.97910800005775,159.97910800005775,160.46383150003385,,,,,,000881hhhhhhhhh,001,,,2023-12-10_18h29.06.041,face_recognition_ERP_protocol,2022.2.5,59.98807439173979,
Celebs/21_Emma_Stone_0002.jpg,non_target,0,0,0,0,0,114,114,101,,,,,,,,,160.9650599999586,160.9650599999586,161.46514850005042,,,,,,000881hhhhhhhhh,001,,,2023-12-10_18h29.06.041,face_recognition_ERP_protocol,2022.2.5,59.98807439173979,
Celebs/39_Jim_Parsons_0004.jpg,non_target,0,0,0,0,0,115,115,86,,,,,,,,,161.98119409999344,161.98119409999344,162.466102699982,,,,,,000881hhhhhhhhh,001,,,2023-12-10_18h29.06.041,face_recognition_ERP_protocol,2022.2.5,59.98807439173979,
Celebs/37_Neil_Patrick_Harris_0010.jpg,non_target,0,0,0,0,0,116,116,91,,,,,,,,,162.98245090001728,162.98245090001728,163.46735219995026,,,,,,000881hhhhhhhhh,001,,,2023-12-10_18h29.06.041,face_recognition_ERP_protocol,2022.2.5,59.98807439173979,
Celebs/17_Margot_Robbie_0012.jpg,non_target,0,0,0,0,0,117,117,66,,,,,,,,,163.9844586000545,163.9844586000545,164.468414700008,,,,,,000881hhhhhhhhh,001,,,2023-12-10_18h29.06.041,face_recognition_ERP_protocol,2022.2.5,59.98807439173979,
Celebs/14_Emma_Watson_0015.jpg,non_target,0,0,0,0,0,118,118,55,,,,,,,,,164.98466049996205,164.98466049996205,165.46937840001192,,,,,,000881hhhhhhhhh,001,,,2023-12-10_18h29.06.041,face_recognition_ERP_protocol,2022.2.5,59.98807439173979,
Celebs/22_Emma_Stone_0013.jpg,non_target,0,0,0,0,0,119,119,1,,,,,,,,,165.98817919997964,165.98817919997964,166.4702982000308,,,,,,000881hhhhhhhhh,001,,,2023-12-10_18h29.06.041,face_recognition_ERP_protocol,2022.2.5,59.98807439173979,
Celebs/29_Scarlett_Johansson_0010.jpg,non_target,1,0,1,0,0,0,0,83,,,,,,,,,168.12667080003303,168.12667080003303,168.5561868000077,166.98622780002188,166.98622780002188,space,1.0360468999715522,,000881hhhhhhhhh,001,,,2023-12-10_18h29.06.041,face_recognition_ERP_protocol,2022.2.5,59.98807439173979,
Celebs/36_Jim_Parsons_0011.jpg,non_target,1,0,1,0,0,1,1,84,,,,,,,,,169.07396810001228,169.07396810001228,169.55733470001724,,,,,,000881hhhhhhhhh,001,,,2023-12-10_18h29.06.041,face_recognition_ERP_protocol,2022.2.5,59.98807439173979,
Celebs/24_Daniel_Radcliffe_0017.jpg,target,1,0,1,0,0,2,2,70,,,,,,,,,170.05841399997007,170.05841399997007,170.55853849998675,,,,,,000881hhhhhhhhh,001,,,2023-12-10_18h29.06.041,face_recognition_ERP_protocol,2022.2.5,59.98807439173979,
Celebs/38_Will_Smith_0013.jpg,non_target,1,0,1,0,0,3,3,12,,,,,,,,,171.07458530005533,171.07458530005533,171.55923660006374,,,,,,000881hhhhhhhhh,001,,,2023-12-10_18h29.06.041,face_recognition_ERP_protocol,2022.2.5,59.98807439173979,
Celebs/55_Jackie_Chan_0015.jpg,non_target,1,0,1,0,0,4,4,29,,,,,,,,,172.07756740006153,172.07756740006153,172.56022950005718,,,,,,000881hhhhhhhhh,001,,,2023-12-10_18h29.06.041,face_recognition_ERP_protocol,2022.2.5,59.98807439173979,
Celebs/42_Will_Smith_0012.jpg,non_target,1,0,1,0,0,5,5,63,,,,,,,,,173.06157589994837,173.06157589994837,173.5614012000151,,,,,,000881hhhhhhhhh,001,,,2023-12-10_18h29.06.041,face_recognition_ERP_protocol,2022.2.5,59.98807439173979,
Celebs/48_Johnny_Depp_0003.jpg,non_target,1,0,1,0,0,6,6,54,,,,,,,,,174.0625613000011,174.0625613000011,174.56249649997335,,,,,,000881hhhhhhhhh,001,,,2023-12-10_18h29.06.041,face_recognition_ERP_protocol,2022.2.5,59.98807439173979,
Celebs/33_Neil_Patrick_Harris_0011.jpg,non_target,1,0,1,0,0,7,7,110,,,,,,,,,175.07921290001832,175.07921290001832,175.5636074000504,,,,,,000881hhhhhhhhh,001,,,2023-12-10_18h29.06.041,face_recognition_ERP_protocol,2022.2.5,59.98807439173979,
Celebs/34_Neil_Patrick_Harris_0007.jpg,non_target,1,0,1,0,0,8,8,116,,,,,,,,,176.06612720002886,176.06612720002886,176.54828750004526,,,,,,000881hhhhhhhhh,001,,,2023-12-10_18h29.06.041,face_recognition_ERP_protocol,2022.2.5,59.98807439173979,
Celebs/43_Will_Smith_0010.jpg,non_target,1,0,1,0,0,9,9,21,,,,,,,,,177.04982489999384,177.04982489999384,177.54940160003025,,,,,,000881hhhhhhhhh,001,,,2023-12-10_18h29.06.041,face_recognition_ERP_protocol,2022.2.5,59.98807439173979,
Celebs/18_Emma_Watson_0004.jpg,non_target,1,0,1,0,0,10,10,74,,,,,,,,,178.06544759997632,178.06544759997632,178.5503678000532,,,,,,000881hhhhhhhhh,001,,,2023-12-10_18h29.06.041,face_recognition_ERP_protocol,2022.2.5,59.98807439173979,
Celebs/45_Johnny_Depp_0003.jpg,non_target,1,0,1,0,0,11,11,106,,,,,,,,,179.06984709994867,179.06984709994867,179.55177250003908,,,,,,000881hhhhhhhhh,001,,,2023-12-10_18h29.06.041,face_recognition_ERP_protocol,2022.2.5,59.98807439173979,
Celebs/20_Margot_Robbie_0006.jpg,non_target,1,0,1,0,0,12,12,34,,,,,,,,,180.06781489995774,180.06781489995774,180.55263190006372,,,,,,000881hhhhhhhhh,001,,,2023-12-10_18h29.06.041,face_recognition_ERP_protocol,2022.2.5,59.98807439173979,
Celebs/40_Will_Smith_0012.jpg,non_target,1,0,1,0,0,13,13,108,,,,,,,,,181.07132460002322,181.07132460002322,181.55373479996342,,,,,,000881hhhhhhhhh,001,,,2023-12-10_18h29.06.041,face_recognition_ERP_protocol,2022.2.5,59.98807439173979,
Celebs/21_Emma_Stone_0002.jpg,non_target,1,0,1,0,0,14,14,101,,,,,,,,,182.05480329995044,182.05480329995044,182.5546869999962,,,,,,000881hhhhhhhhh,001,,,2023-12-10_18h29.06.041,face_recognition_ERP_protocol,2022.2.5,59.98807439173979,
Celebs/43_Will_Smith_0006.jpg,non_target,1,0,1,0,0,15,15,60,,,,,,,,,183.05570310004987,183.05570310004987,183.5561462000478,,,,,,000881hhhhhhhhh,001,,,2023-12-10_18h29.06.041,face_recognition_ERP_protocol,2022.2.5,59.98807439173979,
Celebs/34_Neil_Patrick_Harris_0004.jpg,non_target,1,0,1,0,0,16,16,102,,,,,,,,,184.056910000043,184.056910000043,184.5569497999968,,,,,,000881hhhhhhhhh,001,,,2023-12-10_18h29.06.041,face_recognition_ERP_protocol,2022.2.5,59.98807439173979,
Celebs/27_Scarlett_Johansson_0012.jpg,non_target,1,0,1,0,0,17,17,76,,,,,,,,,185.07412889995612,185.07412889995612,185.55803249997552,,,,,,000881hhhhhhhhh,001,,,2023-12-10_18h29.06.041,face_recognition_ERP_protocol,2022.2.5,59.98807439173979,
Celebs/55_Jackie_Chan_0003.jpg,non_target,1,0,1,0,0,18,18,28,,,,,,,,,186.05939469998702,186.05939469998702,186.5588062000461,,,,,,000881hhhhhhhhh,001,,,2023-12-10_18h29.06.041,face_recognition_ERP_protocol,2022.2.5,59.98807439173979,
Celebs/48_Johnny_Depp_0005.jpg,non_target,1,0,1,0,0,19,19,53,,,,,,,,,187.06028059998062,187.06028059998062,187.5599871999584,,,,,,000881hhhhhhhhh,001,,,2023-12-10_18h29.06.041,face_recognition_ERP_protocol,2022.2.5,59.98807439173979,
Celebs/15_Margot_Robbie_0012.jpg,non_target,1,0,1,0,0,20,20,80,,,,,,,,,188.06136659998447,188.06136659998447,188.56124189996626,,,,,,000881hhhhhhhhh,001,,,2023-12-10_18h29.06.041,face_recognition_ERP_protocol,2022.2.5,59.98807439173979,
Celebs/21_Emma_Stone_0003.jpg,non_target,1,0,1,0,0,21,21,24,,,,,,,,,189.07749269995838,189.07749269995838,189.5624563000165,,,,,,000881hhhhhhhhh,001,,,2023-12-10_18h29.06.041,face_recognition_ERP_protocol,2022.2.5,59.98807439173979,
Celebs/28_Scarlett_Johansson_0005.jpg,non_target,1,0,1,0,0,22,22,49,,,,,,,,,190.0635908000404,190.0635908000404,190.56357180001214,,,,,,000881hhhhhhhhh,001,,,2023-12-10_18h29.06.041,face_recognition_ERP_protocol,2022.2.5,59.98807439173979,
Celebs/50_Johnny_Depp_0010.jpg,non_target,1,0,1,0,0,23,23,113,,,,,,,,,191.06500299996696,191.06500299996696,191.54839680006262,,,,,,000881hhhhhhhhh,001,,,2023-12-10_18h29.06.041,face_recognition_ERP_protocol,2022.2.5,59.98807439173979,
Celebs/47_Johnny_Depp_0009.jpg,non_target,1,0,1,0,0,24,24,22,,,,,,,,,192.04885869997088,192.04885869997088,192.54882599995472,,,,,,000881hhhhhhhhh,001,,,2023-12-10_18h29.06.041,face_recognition_ERP_protocol,2022.2.5,59.98807439173979,
Celebs/14_Emma_Watson_0008.jpg,non_target,1,0,1,0,0,25,25,35,,,,,,,,,193.04992380004842,193.04992380004842,193.54996580001898,,,,,,000881hhhhhhhhh,001,,,2023-12-10_18h29.06.041,face_recognition_ERP_protocol,2022.2.5,59.98807439173979,
Celebs/18_Emma_Stone_0016.jpg,non_target,1,0,1,0,0,26,26,51,,,,,,,,,194.05108889995608,194.05108889995608,194.55124429997522,,,,,,000881hhhhhhhhh,001,,,2023-12-10_18h29.06.041,face_recognition_ERP_protocol,2022.2.5,59.98807439173979,
Celebs/19_Margot_Robbie_0001.jpg,non_target,1,0,1,0,0,27,27,50,,,,,,,,,195.05218350002542,195.05218350002542,195.55198109999765,,,,,,000881hhhhhhhhh,001,,,2023-12-10_18h29.06.041,face_recognition_ERP_protocol,2022.2.5,59.98807439173979,
Celebs/23_Daniel_Radcliffe_0002.jpg,target,1,0,1,0,0,28,28,118,,,,,,,,,196.0709680999862,196.0709680999862,196.55304779997095,,,,,,000881hhhhhhhhh,001,,,2023-12-10_18h29.06.041,face_recognition_ERP_protocol,2022.2.5,59.98807439173979,
Celebs/36_Neil_Patrick_Harris_0007.jpg,non_target,1,0,1,0,0,29,29,5,,,,,,,,,197.0695116999559,197.0695116999559,197.55431320006028,,,,,,000881hhhhhhhhh,001,,,2023-12-10_18h29.06.041,face_recognition_ERP_protocol,2022.2.5,59.98807439173979,
Celebs/24_Scarlett_Johansson_0001.jpg,non_target,1,0,1,0,0,30,30,9,,,,,,,,,198.07394280005246,198.07394280005246,198.55541469994932,,,,,,000881hhhhhhhhh,001,,,2023-12-10_18h29.06.041,face_recognition_ERP_protocol,2022.2.5,59.98807439173979,
Celebs/16_Emma_Stone_0014.jpg,non_target,1,0,1,0,0,31,31,39,,,,,,,,,199.05595179996453,199.05595179996453,199.55651210003998,,,,,,000881hhhhhhhhh,001,,,2023-12-10_18h29.06.041,face_recognition_ERP_protocol,2022.2.5,59.98807439173979,
Celebs/45_Will_Smith_0014.jpg,non_target,1,0,1,0,0,32,32,58,,,,,,,,,200.07474479998928,200.07474479998928,200.5576238000067,,,,,,000881hhhhhhhhh,001,,,2023-12-10_18h29.06.041,face_recognition_ERP_protocol,2022.2.5,59.98807439173979,
Celebs/45_Will_Smith_0010.jpg,non_target,1,0,1,0,0,33,33,68,,,,,,,,,201.07690139999613,201.07690139999613,201.55955300002825,,,,,,000881hhhhhhhhh,001,,,2023-12-10_18h29.06.041,face_recognition_ERP_protocol,2022.2.5,59.98807439173979,
Celebs/22_Emma_Stone_0013.jpg,non_target,1,0,1,0,0,34,34,1,,,,,,,,,202.0773715999676,202.0773715999676,202.55994589999318,,,,,,000881hhhhhhhhh,001,,,2023-12-10_18h29.06.041,face_recognition_ERP_protocol,2022.2.5,59.98807439173979,
Celebs/39_Jim_Parsons_0004.jpg,non_target,1,0,1,0,0,35,35,86,,,,,,,,,203.06128240004182,203.06128240004182,203.5611440000357,,,,,,000881hhhhhhhhh,001,,,2023-12-10_18h29.06.041,face_recognition_ERP_protocol,2022.2.5,59.98807439173979,
Celebs/18_Daniel_Radcliffe_0008.jpg,target,1,0,1,0,0,36,36,27,,,,,,,,,204.06233089999296,204.06233089999296,204.56201200000942,,,,,,000881hhhhhhhhh,001,,,2023-12-10_18h29.06.041,face_recognition_ERP_protocol,2022.2.5,59.98807439173979,
Celebs/17_Margot_Robbie_0012.jpg,non_target,1,0,1,0,0,37,37,66,,,,,,,,,205.07855299999937,205.07855299999937,205.56328280002344,,,,,,000881hhhhhhhhh,001,,,2023-12-10_18h29.06.041,face_recognition_ERP_protocol,2022.2.5,59.98807439173979,
Celebs/22_Scarlett_Johansson_0005.jpg,non_target,1,0,1,0,0,38,38,43,,,,,,,,,206.06436550000217,206.06436550000217,206.56588460004423,,,,,,000881hhhhhhhhh,001,,,2023-12-10_18h29.06.041,face_recognition_ERP_protocol,2022.2.5,59.98807439173979,
Celebs/19_Emma_Stone_0006.jpg,non_target,1,0,1,0,0,39,39,65,,,,,,,,,207.04857960005756,207.04857960005756,207.54930559999775,,,,,,000881hhhhhhhhh,001,,,2023-12-10_18h29.06.041,face_recognition_ERP_protocol,2022.2.5,59.98807439173979,
Celebs/37_Neil_Patrick_Harris_0010.jpg,non_target,1,0,1,0,0,40,40,91,,,,,,,,,208.04961590003222,208.04961590003222,208.54989879997447,,,,,,000881hhhhhhhhh,001,,,2023-12-10_18h29.06.041,face_recognition_ERP_protocol,2022.2.5,59.98807439173979,
Celebs/44_Will_Smith_0006.jpg,non_target,1,0,1,0,0,41,41,40,,,,,,,,,209.06645190005656,209.06645190005656,209.55114100000355,,,,,,000881hhhhhhhhh,001,,,2023-12-10_18h29.06.041,face_recognition_ERP_protocol,2022.2.5,59.98807439173979,
Celebs/50_Johnny_Depp_0004.jpg,non_target,1,0,1,0,0,42,42,38,,,,,,,,,210.05204970005434,210.05204970005434,210.55197869997937,,,,,,000881hhhhhhhhh,001,,,2023-12-10_18h29.06.041,face_recognition_ERP_protocol,2022.2.5,59.98807439173979,
Celebs/21_Daniel_Radcliffe_0008.jpg,target,1,0,1,0,0,43,43,15,,,,,,,,,211.0707759000361,211.0707759000361,211.55289749999065,,,,,,000881hhhhhhhhh,001,,,2023-12-10_18h29.06.041,face_recognition_ERP_protocol,2022.2.5,59.98807439173979,
Celebs/22_Margot_Robbie_0010.jpg,non_target,1,0,1,0,0,44,44,17,,,,,,,,,212.0707593000261,212.0707593000261,212.55423480004538,,,,,,000881hhhhhhhhh,001,,,2023-12-10_18h29.06.041,face_recognition_ERP_protocol,2022.2.5,59.98807439173979,
Celebs/21_Scarlett_Johansson_0007.jpg,non_target,1,0,1,0,0,45,45,117,,,,,,,,,213.0723398999544,213.0723398999544,213.55545960005838,,,,,,000881hhhhhhhhh,001,,,2023-12-10_18h29.06.041,face_recognition_ERP_protocol,2022.2.5,59.98807439173979,
Celebs/39_Neil_Patrick_Harris_0001.jpg,non_target,1,0,1,0,0,46,46,4,,,,,,,,,214.056391500053,214.056391500053,214.5565281000454,,,,,,000881hhhhhhhhh,001,,,2023-12-10_18h29.06.041,face_recognition_ERP_protocol,2022.2.5,59.98807439173979,
Celebs/37_Will_Smith_0015.jpg,non_target,1,0,1,0,0,47,47,111,,,,,,,,,215.05770919995848,215.05770919995848,215.55757249996532,,,,,,000881hhhhhhhhh,001,,,2023-12-10_18h29.06.041,face_recognition_ERP_protocol,2022.2.5,59.98807439173979,
Celebs/22_Emma_Watson_0001.jpg,non_target,1,0,1,0,0,48,48,57,,,,,,,,,216.0584288999671,216.0584288999671,216.55888649995904,,,,,,000881hhhhhhhhh,001,,,2023-12-10_18h29.06.041,face_recognition_ERP_protocol,2022.2.5,59.98807439173979,
Celebs/57_Jackie_Chan_0008.jpg,non_target,1,0,1,0,0,49,49,71,,,,,,,,,217.05957519996446,217.05957519996446,217.55936329998076,,,,,,000881hhhhhhhhh,001,,,2023-12-10_18h29.06.041,face_recognition_ERP_protocol,2022.2.5,59.98807439173979,
Celebs/24_Scarlett_Johansson_0011.jpg,non_target,1,0,1,0,0,50,50,98,,,,,,,,,218.06026339996606,218.06026339996606,218.5606909999624,,,,,,000881hhhhhhhhh,001,,,2023-12-10_18h29.06.041,face_recognition_ERP_protocol,2022.2.5,59.98807439173979,
Celebs/20_Scarlett_Johansson_0011.jpg,non_target,1,0,1,0,0,51,51,107,,,,,,,,,219.06184480001684,219.06184480001684,219.56178740004543,,,,,,000881hhhhhhhhh,001,,,2023-12-10_18h29.06.041,face_recognition_ERP_protocol,2022.2.5,59.98807439173979,
Celebs/16_Margot_Robbie_0009.jpg,non_target,1,0,1,0,0,52,52,105,,,,,,,,,220.06321419996675,220.06321419996675,220.56287809996866,,,,,,000881hhhhhhhhh,001,,,2023-12-10_18h29.06.041,face_recognition_ERP_protocol,2022.2.5,59.98807439173979,
Celebs/19_Margot_Robbie_0004.jpg,non_target,1,0,1,0,0,53,53,41,,,,,,,,,221.0639895000495,221.0639895000495,221.56408819998614,,,,,,000881hhhhhhhhh,001,,,2023-12-10_18h29.06.041,face_recognition_ERP_protocol,2022.2.5,59.98807439173979,
Celebs/33_Jim_Parsons_0011.jpg,non_target,1,0,1,0,0,54,54,33,,,,,,,,,222.06523900001775,222.06523900001775,222.5484627999831,,,,,,000881hhhhhhhhh,001,,,2023-12-10_18h29.06.041,face_recognition_ERP_protocol,2022.2.5,59.98807439173979,
Celebs/50_Johnny_Depp_0018.jpg,non_target,1,0,1,0,0,55,55,23,,,,,,,,,223.04974080005195,223.04974080005195,223.54962149995845,,,,,,000881hhhhhhhhh,001,,,2023-12-10_18h29.06.041,face_recognition_ERP_protocol,2022.2.5,59.98807439173979,
Celebs/23_Emma_Stone_0014.jpg,non_target,1,0,1,0,0,56,56,11,,,,,,,,,224.06838750001043,224.06838750001043,224.55054830003064,,,,,,000881hhhhhhhhh,001,,,2023-12-10_18h29.06.041,face_recognition_ERP_protocol,2022.2.5,59.98807439173979,
Celebs/17_Emma_Watson_0006.jpg,non_target,1,0,1,0,0,57,57,88,,,,,,,,,225.0518732999917,225.0518732999917,225.55158890003804,,,,,,000881hhhhhhhhh,001,,,2023-12-10_18h29.06.041,face_recognition_ERP_protocol,2022.2.5,59.98807439173979,
Celebs/14_Emma_Watson_0015.jpg,non_target,1,0,1,0,0,58,58,55,,,,,,,,,226.05260910000652,226.05260910000652,226.5528623999562,,,,,,000881hhhhhhhhh,001,,,2023-12-10_18h29.06.041,face_recognition_ERP_protocol,2022.2.5,59.98807439173979,
Celebs/38_Neil_Patrick_Harris_0006.jpg,non_target,1,0,1,0,0,59,59,30,,,,,,,,,227.05401329998858,227.05401329998858,227.5540587999858,,,,,,000881hhhhhhhhh,001,,,2023-12-10_18h29.06.041,face_recognition_ERP_protocol,2022.2.5,59.98807439173979,
Celebs/26_Scarlett_Johansson_0008.jpg,non_target,1,0,1,0,0,60,60,46,,,,,,,,,228.07167840003967,228.07167840003967,228.55810230004136,,,,,,000881hhhhhhhhh,001,,,2023-12-10_18h29.06.041,face_recognition_ERP_protocol,2022.2.5,59.98807439173979,
Celebs/22_Emma_Watson_0010.jpg,non_target,1,0,1,0,0,61,61,10,,,,,,,,,229.076714899973,229.076714899973,229.55698510003276,,,,,,000881hhhhhhhhh,001,,,2023-12-10_18h29.06.041,face_recognition_ERP_protocol,2022.2.5,59.98807439173979,
Celebs/18_Daniel_Radcliffe_0007.jpg,target,1,0,1,0,0,62,62,79,,,,,,,,,230.05698410002515,230.05698410002515,230.55717809998896,,,,,,000881hhhhhhhhh,001,,,2023-12-10_18h29.06.041,face_recognition_ERP_protocol,2022.2.5,59.98807439173979,
Celebs/50_Jackie_Chan_0012.jpg,non_target,1,0,1,0,0,63,63,42,,,,,,,,,231.07728760002647,231.07728760002647,231.56129340000916,,,,,,000881hhhhhhhhh,001,,,2023-12-10_18h29.06.041,face_recognition_ERP_protocol,2022.2.5,59.98807439173979,
Celebs/35_Neil_Patrick_Harris_0009.jpg,non_target,1,0,1,0,0,64,64,85,,,,,,,,,232.06079959997442,232.06079959997442,232.5583935000468,,,,,,000881hhhhhhhhh,001,,,2023-12-10_18h29.06.041,face_recognition_ERP_protocol,2022.2.5,59.98807439173979,
Celebs/16_Emma_Stone_0008.jpg,non_target,1,0,1,0,0,65,65,47,,,,,,,,,233.0646557,233.0646557,233.55966779997107,,,,,,000881hhhhhhhhh,001,,,2023-12-10_18h29.06.041,face_recognition_ERP_protocol,2022.2.5,59.98807439173979,
Celebs/20_Emma_Stone_0005.jpg,non_target,1,0,1,0,0,66,66,62,,,,,,,,,234.06572800001595,234.06572800001595,234.5480161999585,,,,,235.0645714000566,000881hhhhhhhhh,001,,,2023-12-10_18h29.06.041,face_recognition_ERP_protocol,2022.2.5,59.98807439173979,
Celebs/32_Jim_Parsons_0010.jpg,non_target,1,0,1,0,0,67,67,96,,,,,,,,,235.0645714000566,235.0645714000566,235.56368739996105,,,,,,000881hhhhhhhhh,001,,,2023-12-10_18h29.06.041,face_recognition_ERP_protocol,2022.2.5,59.98807439173979,
Celebs/39_Jim_Parsons_0008.jpg,non_target,1,0,1,0,0,68,68,87,,,,,,,,,236.06402589997742,236.06402589997742,236.5788584999973,,,,,,000881hhhhhhhhh,001,,,2023-12-10_18h29.06.041,face_recognition_ERP_protocol,2022.2.5,59.98807439173979,
Celebs/55_Jackie_Chan_0008.jpg,non_target,1,0,1,0,0,69,69,90,,,,,,,,,237.0800467999652,237.0800467999652,237.5628273000475,,,,,,000881hhhhhhhhh,001,,,2023-12-10_18h29.06.041,face_recognition_ERP_protocol,2022.2.5,59.98807439173979,
Celebs/16_Emma_Stone_0012.jpg,non_target,1,0,1,0,0,70,70,69,,,,,,,,,238.06400640006177,238.06400640006177,238.55163470003754,,,,,,000881hhhhhhhhh,001,,,2023-12-10_18h29.06.041,face_recognition_ERP_protocol,2022.2.5,59.98807439173979,
Celebs/14_Emma_Watson_0005.jpg,non_target,1,0,1,0,0,71,71,25,,,,,,,,,239.04893449996598,239.04893449996598,239.55067729996517,,,,,,000881hhhhhhhhh,001,,,2023-12-10_18h29.06.041,face_recognition_ERP_protocol,2022.2.5,59.98807439173979,
Celebs/18_Daniel_Radcliffe_0002.jpg,target,1,0,1,0,0,72,72,119,,,,,,,,,240.0495765999658,240.0495765999658,240.54969480005093,,,,,,000881hhhhhhhhh,001,,,2023-12-10_18h29.06.041,face_recognition_ERP_protocol,2022.2.5,59.98807439173979,
Celebs/48_Johnny_Depp_0001.jpg,non_target,1,0,1,0,0,73,73,104,,,,,,,,,241.07235569995828,241.07235569995828,241.55202269996516,,,,,,000881hhhhhhhhh,001,,,2023-12-10_18h29.06.041,face_recognition_ERP_protocol,2022.2.5,59.98807439173979,
Celebs/54_Jackie_Chan_0014.jpg,non_target,1,0,1,0,0,74,74,109,,,,,,,,,242.05222409998532,242.05222409998532,242.55167379998602,,,,,,000881hhhhhhhhh,001,,,2023-12-10_18h29.06.041,face_recognition_ERP_protocol,2022.2.5,59.98807439173979,
Celebs/14_Emma_Watson_0004.jpg,non_target,1,0,1,0,0,75,75,13,,,,,,,,,243.07028230000287,243.07028230000287,243.55278839997482,,,,,,000881hhhhhhhhh,001,,,2023-12-10_18h29.06.041,face_recognition_ERP_protocol,2022.2.5,59.98807439173979,
Celebs/38_Jim_Parsons_0003.jpg,non_target,1,0,1,0,0,76,76,52,,,,,,,,,244.05415670003276,244.05415670003276,244.55764250003267,,,,,,000881hhhhhhhhh,001,,,2023-12-10_18h29.06.041,face_recognition_ERP_protocol,2022.2.5,59.98807439173979,
Celebs/21_Emma_Watson_0004.jpg,non_target,1,0,1,0,0,77,77,20,,,,,,,,,245.05601569998544,245.05601569998544,245.556728900061,,,,,,000881hhhhhhhhh,001,,,2023-12-10_18h29.06.041,face_recognition_ERP_protocol,2022.2.5,59.98807439173979,
Celebs/23_Daniel_Radcliffe_0019.jpg,target,1,0,1,0,0,78,78,6,,,,,,,,,246.0582815000089,246.0582815000089,246.55849379999563,,,,,,000881hhhhhhhhh,001,,,2023-12-10_18h29.06.041,face_recognition_ERP_protocol,2022.2.5,59.98807439173979,
Celebs/44_Will_Smith_0015.jpg,non_target,1,0,1,0,0,79,79,99,,,,,,,,,247.0576155000599,247.0576155000599,247.55810639995616,,,,,,000881hhhhhhhhh,001,,,2023-12-10_18h29.06.041,face_recognition_ERP_protocol,2022.2.5,59.98807439173979,
Celebs/21_Daniel_Radcliffe_0009.jpg,target,1,0,1,0,0,80,80,81,,,,,,,,,248.07776939996984,248.07776939996984,248.55861840001307,,,,,,000881hhhhhhhhh,001,,,2023-12-10_18h29.06.041,face_recognition_ERP_protocol,2022.2.5,59.98807439173979,
Celebs/54_Jackie_Chan_0001.jpg,non_target,1,0,1,0,0,81,81,7,,,,,,,,,249.078510500025,249.078510500025,249.56008149997797,,,,,,000881hhhhhhhhh,001,,,2023-12-10_18h29.06.041,face_recognition_ERP_protocol,2022.2.5,59.98807439173979,
Celebs/32_Jim_Parsons_0016.jpg,non_target,1,0,1,0,0,82,82,100,,,,,,,,,250.06258430005983,250.06258430005983,250.5609504999593,,,,,,000881hhhhhhhhh,001,,,2023-12-10_18h29.06.041,face_recognition_ERP_protocol,2022.2.5,59.98807439173979,
Celebs/23_Daniel_Radcliffe_0010.jpg,target,1,0,1,0,0,83,83,14,,,,,,,,,251.06154440005776,251.06154440005776,251.55236269999295,,,,,,000881hhhhhhhhh,001,,,2023-12-10_18h29.06.041,face_recognition_ERP_protocol,2022.2.5,59.98807439173979,
Celebs/21_Margot_Robbie_0003.jpg,non_target,1,0,1,0,0,84,84,26,,,,,,,,,252.0669814000139,252.0669814000139,252.54731890000403,,,,,,000881hhhhhhhhh,001,,,2023-12-10_18h29.06.041,face_recognition_ERP_protocol,2022.2.5,59.98807439173979,
Celebs/17_Daniel_Radcliffe_0007.jpg,target,1,0,1,0,0,85,85,18,,,,,,,,,253.0497944999952,253.0497944999952,253.56368220003787,,,,,,000881hhhhhhhhh,001,,,2023-12-10_18h29.06.041,face_recognition_ERP_protocol,2022.2.5,59.98807439173979,
Celebs/44_Will_Smith_0007.jpg,non_target,1,0,1,0,0,86,86,64,,,,,,,,,254.06561859999783,254.06561859999783,254.55319330003113,,,,,,000881hhhhhhhhh,001,,,2023-12-10_18h29.06.041,face_recognition_ERP_protocol,2022.2.5,59.98807439173979,
Celebs/17_Margot_Robbie_0006.jpg,non_target,1,0,1,0,0,87,87,16,,,,,,,,,255.05024769995362,255.05024769995362,255.55167820001952,,,,,,000881hhhhhhhhh,001,,,2023-12-10_18h29.06.041,face_recognition_ERP_protocol,2022.2.5,59.98807439173979,
Celebs/14_Emma_Watson_0013.jpg,non_target,1,0,1,0,0,88,88,19,,,,,,,,,256.0764136000071,256.0764136000071,256.553339599981,,,,,,000881hhhhhhhhh,001,,,2023-12-10_18h29.06.041,face_recognition_ERP_protocol,2022.2.5,59.98807439173979,
Celebs/20_Margot_Robbie_0004.jpg,non_target,1,0,1,0,0,89,89,114,,,,,,,,,257.0688263999764,257.0688263999764,257.55311510001775,,,,,,000881hhhhhhhhh,001,,,2023-12-10_18h29.06.041,face_recognition_ERP_protocol,2022.2.5,59.98807439173979,
Celebs/47_Johnny_Depp_0003.jpg,non_target,1,0,1,0,0,90,90,8,,,,,,,,,258.0542205000529,258.0542205000529,258.5544261999894,,,,,,000881hhhhhhhhh,001,,,2023-12-10_18h29.06.041,face_recognition_ERP_protocol,2022.2.5,59.98807439173979,
Celebs/39_Jim_Parsons_0010.jpg,non_target,1,0,1,0,0,91,91,0,,,,,,,,,259.0550472000614,259.0550472000614,259.55575459997635,,,,,,000881hhhhhhhhh,001,,,2023-12-10_18h29.06.041,face_recognition_ERP_protocol,2022.2.5,59.98807439173979,
Celebs/20_Emma_Watson_0007.jpg,non_target,1,0,1,0,0,92,92,94,,,,,,,,,260.0563723000232,260.0563723000232,260.55974830000196,,,,,,000881hhhhhhhhh,001,,,2023-12-10_18h29.06.041,face_recognition_ERP_protocol,2022.2.5,59.98807439173979,
Celebs/40_Jim_Parsons_0015.jpg,non_target,1,0,1,0,0,93,93,44,,,,,,,,,261.0747481000144,261.0747481000144,261.55942780000623,,,,,,000881hhhhhhhhh,001,,,2023-12-10_18h29.06.041,face_recognition_ERP_protocol,2022.2.5,59.98807439173979,
Celebs/39_Jim_Parsons_0001.jpg,non_target,1,0,1,0,0,94,94,48,,,,,,,,,262.07987000001594,262.07987000001594,262.5619325999869,,,,,,000881hhhhhhhhh,001,,,2023-12-10_18h29.06.041,face_recognition_ERP_protocol,2022.2.5,59.98807439173979,
Celebs/25_Scarlett_Johansson_0010.jpg,non_target,1,0,1,0,0,95,95,31,,,,,,,,,263.07732699997723,263.07732699997723,263.558890299988,,,,,,000881hhhhhhhhh,001,,,2023-12-10_18h29.06.041,face_recognition_ERP_protocol,2022.2.5,59.98807439173979,
Celebs/43_Will_Smith_0007.jpg,non_target,1,0,1,0,0,96,96,73,,,,,,,,,264.0809262000257,264.0809262000257,264.55981690005865,,,,,,000881hhhhhhhhh,001,,,2023-12-10_18h29.06.041,face_recognition_ERP_protocol,2022.2.5,59.98807439173979,
Celebs/37_Neil_Patrick_Harris_0014.jpg,non_target,1,0,1,0,0,97,97,36,,,,,,,,,265.06322660006117,265.06322660006117,265.5454544000095,,,,,266.06342889997177,000881hhhhhhhhh,001,,,2023-12-10_18h29.06.041,face_recognition_ERP_protocol,2022.2.5,59.98807439173979,
Celebs/40_Jim_Parsons_0004.jpg,non_target,1,0,1,0,0,98,98,72,,,,,,,,,266.06342889997177,266.06342889997177,266.5622652999591,,,,,,000881hhhhhhhhh,001,,,2023-12-10_18h29.06.041,face_recognition_ERP_protocol,2022.2.5,59.98807439173979,
Celebs/36_Neil_Patrick_Harris_0010.jpg,non_target,1,0,1,0,0,99,99,77,,,,,,,,,267.0633007000433,267.0633007000433,267.5633043999551,,,,,,000881hhhhhhhhh,001,,,2023-12-10_18h29.06.041,face_recognition_ERP_protocol,2022.2.5,59.98807439173979,
Celebs/39_Neil_Patrick_Harris_0010.jpg,non_target,1,0,1,0,0,100,100,92,,,,,,,,,268.0643523000181,268.0643523000181,268.56447920005303,,,,,,000881hhhhhhhhh,001,,,2023-12-10_18h29.06.041,face_recognition_ERP_protocol,2022.2.5,59.98807439173979,
Celebs/24_Emma_Stone_0015.jpg,non_target,1,0,1,0,0,101,101,56,,,,,,,,,269.0487048999639,269.0487048999639,269.5489764000522,,,,,,000881hhhhhhhhh,001,,,2023-12-10_18h29.06.041,face_recognition_ERP_protocol,2022.2.5,59.98807439173979,
Celebs/15_Margot_Robbie_0005.jpg,non_target,1,0,1,0,0,102,102,78,,,,,,,,,270.04974619997665,270.04974619997665,270.549807399977,,,,,,000881hhhhhhhhh,001,,,2023-12-10_18h29.06.041,face_recognition_ERP_protocol,2022.2.5,59.98807439173979,
Celebs/50_Johnny_Depp_0008.jpg,non_target,1,0,1,0,0,103,103,82,,,,,,,,,271.05084320006426,271.05084320006426,271.55120990006253,,,,,,000881hhhhhhhhh,001,,,2023-12-10_18h29.06.041,face_recognition_ERP_protocol,2022.2.5,59.98807439173979,
Celebs/29_Scarlett_Johansson_0016.jpg,non_target,1,0,1,0,0,104,104,2,,,,,,,,,272.0519846000243,272.0519846000243,272.55192680004984,,,,,,000881hhhhhhhhh,001,,,2023-12-10_18h29.06.041,face_recognition_ERP_protocol,2022.2.5,59.98807439173979,
Celebs/17_Margot_Robbie_0014.jpg,non_target,1,0,1,0,0,105,105,112,,,,,,,,,273.0532515000086,273.0532515000086,273.5536229000427,,,,,,000881hhhhhhhhh,001,,,2023-12-10_18h29.06.041,face_recognition_ERP_protocol,2022.2.5,59.98807439173979,
Celebs/32_Jim_Parsons_0018.jpg,non_target,1,0,1,0,0,106,106,45,,,,,,,,,274.07361730001867,274.07361730001867,274.55352570000105,,,,,,000881hhhhhhhhh,001,,,2023-12-10_18h29.06.041,face_recognition_ERP_protocol,2022.2.5,59.98807439173979,
Celebs/52_Jackie_Chan_0002.jpg,non_target,1,0,1,0,0,107,107,67,,,,,,,,,275.07711970002856,275.07711970002856,275.55560970003717,,,,,,000881hhhhhhhhh,001,,,2023-12-10_18h29.06.041,face_recognition_ERP_protocol,2022.2.5,59.98807439173979,
Celebs/51_Jackie_Chan_0006.jpg,non_target,1,0,1,0,0,108,108,95,,,,,,,,,276.05699129996356,276.05699129996356,276.55777579999994,,,,,,000881hhhhhhhhh,001,,,2023-12-10_18h29.06.041,face_recognition_ERP_protocol,2022.2.5,59.98807439173979,
Celebs/21_Daniel_Radcliffe_0002.jpg,target,1,0,1,0,0,109,109,59,,,,,,,,,277.0575404999545,277.0575404999545,277.55799240001943,,,,,,000881hhhhhhhhh,001,,,2023-12-10_18h29.06.041,face_recognition_ERP_protocol,2022.2.5,59.98807439173979,
Celebs/21_Daniel_Radcliffe_0012.jpg,target,1,0,1,0,0,110,110,115,,,,,,,,,278.0587164000608,278.0587164000608,278.5587699000025,,,,,,000881hhhhhhhhh,001,,,2023-12-10_18h29.06.041,face_recognition_ERP_protocol,2022.2.5,59.98807439173979,
Celebs/22_Emma_Watson_0003.jpg,non_target,1,0,1,0,0,111,111,89,,,,,,,,,279.0595541000366,279.0595541000366,279.5611033999594,,,,,,000881hhhhhhhhh,001,,,2023-12-10_18h29.06.041,face_recognition_ERP_protocol,2022.2.5,59.98807439173979,
Celebs/57_Jackie_Chan_0010.jpg,non_target,1,0,1,0,0,112,112,61,,,,,,,,,280.0607474000426,280.0607474000426,280.570198200061,,,,,,000881hhhhhhhhh,001,,,2023-12-10_18h29.06.041,face_recognition_ERP_protocol,2022.2.5,59.98807439173979,
Celebs/58_Jackie_Chan_0005.jpg,non_target,1,0,1,0,0,113,113,3,,,,,,,,,281.08294079999905,281.08294079999905,281.56322410004213,,,,,,000881hhhhhhhhh,001,,,2023-12-10_18h29.06.041,face_recognition_ERP_protocol,2022.2.5,59.98807439173979,
Celebs/49_Johnny_Depp_0013.jpg,non_target,1,0,1,0,0,114,114,32,,,,,,,,,282.0641276000533,282.0641276000533,282.5630802999949,,,,,,000881hhhhhhhhh,001,,,2023-12-10_18h29.06.041,face_recognition_ERP_protocol,2022.2.5,59.98807439173979,
Celebs/47_Johnny_Depp_0004.jpg,non_target,1,0,1,0,0,115,115,75,,,,,,,,,283.06619389995467,283.06619389995467,283.5500452000415,,,,,,000881hhhhhhhhh,001,,,2023-12-10_18h29.06.041,face_recognition_ERP_protocol,2022.2.5,59.98807439173979,
Celebs/31_Neil_Patrick_Harris_0008.jpg,non_target,1,0,1,0,0,116,116,97,,,,,,,,,284.0680727000581,284.0680727000581,284.54895580001175,,,,,,000881hhhhhhhhh,001,,,2023-12-10_18h29.06.041,face_recognition_ERP_protocol,2022.2.5,59.98807439173979,
Celebs/50_Jackie_Chan_0014.jpg,non_target,1,0,1,0,0,117,117,37,,,,,,,,,285.06690209999215,285.06690209999215,285.55094520002604,,,,,,000881hhhhhhhhh,001,,,2023-12-10_18h29.06.041,face_recognition_ERP_protocol,2022.2.5,59.98807439173979,
Celebs/26_Scarlett_Johansson_0003.jpg,non_target,1,0,1,0,0,118,118,103,,,,,,,,,286.0516837000614,286.0516837000614,286.5688202000456,,,,,,000881hhhhhhhhh,001,,,2023-12-10_18h29.06.041,face_recognition_ERP_protocol,2022.2.5,59.98807439173979,
Celebs/16_Emma_Stone_0010.jpg,non_target,1,0,1,0,0,119,119,93,,,,,,,,,287.05421390000265,287.05421390000265,287.55239580001216,,,,,,000881hhhhhhhhh,001,,,2023-12-10_18h29.06.041,face_recognition_ERP_protocol,2022.2.5,59.98807439173979,
Celebs/14_Emma_Watson_0005.jpg,non_target,2,0,2,0,0,0,0,25,,,,,,,,,288.3865464000264,288.3865464000264,288.8040324000176,288.0541556000244,288.0541556000244,space,0.2033297000452876,,000881hhhhhhhhh,001,,,2023-12-10_18h29.06.041,face_recognition_ERP_protocol,2022.2.5,59.98807439173979,
Celebs/22_Emma_Stone_0013.jpg,non_target,2,0,2,0,0,1,1,1,,,,,,,,,289.32274410000537,289.32274410000537,289.8059028000571,,,,,,000881hhhhhhhhh,001,,,2023-12-10_18h29.06.041,face_recognition_ERP_protocol,2022.2.5,59.98807439173979,
Celebs/20_Emma_Watson_0007.jpg,non_target,2,0,2,0,0,2,2,94,,,,,,,,,290.3069184999913,290.3069184999913,290.80605630006175,,,,,,000881hhhhhhhhh,001,,,2023-12-10_18h29.06.041,face_recognition_ERP_protocol,2022.2.5,59.98807439173979,
Celebs/39_Jim_Parsons_0001.jpg,non_target,2,0,2,0,0,3,3,48,,,,,,,,,291.3091305999551,291.3091305999551,291.790193199995,,,,,,000881hhhhhhhhh,001,,,2023-12-10_18h29.06.041,face_recognition_ERP_protocol,2022.2.5,59.98807439173979,
Celebs/47_Johnny_Depp_0009.jpg,non_target,2,0,2,0,0,4,4,22,,,,,,,,,292.30878880003,292.30878880003,292.7914264999563,,,,,,000881hhhhhhhhh,001,,,2023-12-10_18h29.06.041,face_recognition_ERP_protocol,2022.2.5,59.98807439173979,
Celebs/21_Daniel_Radcliffe_0012.jpg,target,2,0,2,0,0,5,5,115,,,,,,,,,293.3104756999528,293.3104756999528,293.7934907999588,,,,,,000881hhhhhhhhh,001,,,2023-12-10_18h29.06.041,face_recognition_ERP_protocol,2022.2.5,59.98807439173979,
Celebs/39_Jim_Parsons_0010.jpg,non_target,2,0,2,0,0,6,6,0,,,,,,,,,294.2942431999836,294.2942431999836,294.7952086000005,,,,,,000881hhhhhhhhh,001,,,2023-12-10_18h29.06.041,face_recognition_ERP_protocol,2022.2.5,59.98807439173979,
Celebs/17_Daniel_Radcliffe_0007.jpg,target,2,0,2,0,0,7,7,18,,,,,,,,,295.31430760002695,295.31430760002695,295.7954325999599,,,,,,000881hhhhhhhhh,001,,,2023-12-10_18h29.06.041,face_recognition_ERP_protocol,2022.2.5,59.98807439173979,
Celebs/20_Margot_Robbie_0006.jpg,non_target,2,0,2,0,0,8,8,34,,,,,,,,,296.3137859000126,296.3137859000126,296.79810769995674,,,,,,000881hhhhhhhhh,001,,,2023-12-10_18h29.06.041,face_recognition_ERP_protocol,2022.2.5,59.98807439173979,
Celebs/50_Jackie_Chan_0012.jpg,non_target,2,0,2,0,0,9,9,42,,,,,,,,,297.2969876000425,297.2969876000425,297.79720110003836,,,,,,000881hhhhhhhhh,001,,,2023-12-10_18h29.06.041,face_recognition_ERP_protocol,2022.2.5,59.98807439173979,
Celebs/18_Emma_Stone_0016.jpg,non_target,2,0,2,0,0,10,10,51,,,,,,,,,298.3169397000456,298.3169397000456,298.80113629996777,,,,,,000881hhhhhhhhh,001,,,2023-12-10_18h29.06.041,face_recognition_ERP_protocol,2022.2.5,59.98807439173979,
Celebs/32_Jim_Parsons_0010.jpg,non_target,2,0,2,0,0,11,11,96,,,,,,,,,299.29844230005983,299.29844230005983,299.8008850000333,,,,,,000881hhhhhhhhh,001,,,2023-12-10_18h29.06.041,face_recognition_ERP_protocol,2022.2.5,59.98807439173979,
Celebs/39_Jim_Parsons_0008.jpg,non_target,2,0,2,0,0,12,12,87,,,,,,,,,300.3170174000552,300.3170174000552,300.80023060005624,,,,,,000881hhhhhhhhh,001,,,2023-12-10_18h29.06.041,face_recognition_ERP_protocol,2022.2.5,59.98807439173979,
Celebs/21_Emma_Stone_0002.jpg,non_target,2,0,2,0,0,13,13,101,,,,,,,,,301.30070090002846,301.30070090002846,301.80037800001446,,,,,,000881hhhhhhhhh,001,,,2023-12-10_18h29.06.041,face_recognition_ERP_protocol,2022.2.5,59.98807439173979,
Celebs/22_Emma_Watson_0003.jpg,non_target,2,0,2,0,0,14,14,89,,,,,,,,,302.319068999961,302.319068999961,302.80290809995495,,,,,,000881hhhhhhhhh,001,,,2023-12-10_18h29.06.041,face_recognition_ERP_protocol,2022.2.5,59.98807439173979,
Celebs/52_Jackie_Chan_0002.jpg,non_target,2,0,2,0,0,15,15,67,,,,,,,,,303.30337640002836,303.30337640002836,303.8052544000093,,,,,,000881hhhhhhhhh,001,,,2023-12-10_18h29.06.041,face_recognition_ERP_protocol,2022.2.5,59.98807439173979,
Celebs/25_Scarlett_Johansson_0010.jpg,non_target,2,0,2,0,0,16,16,31,,,,,,,,,304.30413269996643,304.30413269996643,304.80424159998074,,,,,,000881hhhhhhhhh,001,,,2023-12-10_18h29.06.041,face_recognition_ERP_protocol,2022.2.5,59.98807439173979,
Celebs/26_Scarlett_Johansson_0003.jpg,non_target,2,0,2,0,0,17,17,103,,,,,,,,,305.30496550002135,305.30496550002135,305.80520379997324,,,,,,000881hhhhhhhhh,001,,,2023-12-10_18h29.06.041,face_recognition_ERP_protocol,2022.2.5,59.98807439173979,
Celebs/14_Emma_Watson_0008.jpg,non_target,2,0,2,0,0,18,18,35,,,,,,,,,306.3070506999502,306.3070506999502,306.8063120000297,,,,,,000881hhhhhhhhh,001,,,2023-12-10_18h29.06.041,face_recognition_ERP_protocol,2022.2.5,59.98807439173979,
Celebs/17_Margot_Robbie_0014.jpg,non_target,2,0,2,0,0,19,19,112,,,,,,,,,307.3075867999578,307.3075867999578,307.79081340006087,,,,,,000881hhhhhhhhh,001,,,2023-12-10_18h29.06.041,face_recognition_ERP_protocol,2022.2.5,59.98807439173979,
Celebs/39_Neil_Patrick_Harris_0010.jpg,non_target,2,0,2,0,0,20,20,92,,,,,,,,,308.3084118999541,308.3084118999541,308.79165330005344,,,,,,000881hhhhhhhhh,001,,,2023-12-10_18h29.06.041,face_recognition_ERP_protocol,2022.2.5,59.98807439173979,
Celebs/18_Daniel_Radcliffe_0007.jpg,target,2,0,2,0,0,21,21,79,,,,,,,,,309.2924114000052,309.2924114000052,309.79277459997684,,,,,,000881hhhhhhhhh,001,,,2023-12-10_18h29.06.041,face_recognition_ERP_protocol,2022.2.5,59.98807439173979,
Celebs/27_Scarlett_Johansson_0012.jpg,non_target,2,0,2,0,0,22,22,76,,,,,,,,,310.2940141999861,310.2940141999861,310.7953786000144,,,,,,000881hhhhhhhhh,001,,,2023-12-10_18h29.06.041,face_recognition_ERP_protocol,2022.2.5,59.98807439173979,
Celebs/18_Emma_Watson_0004.jpg,non_target,2,0,2,0,0,23,23,74,,,,,,,,,311.31145869998727,311.31145869998727,311.79605799994897,,,,,,000881hhhhhhhhh,001,,,2023-12-10_18h29.06.041,face_recognition_ERP_protocol,2022.2.5,59.98807439173979,
Celebs/44_Will_Smith_0007.jpg,non_target,2,0,2,0,0,24,24,64,,,,,,,,,312.2962042000145,312.2962042000145,312.79664820001926,,,,,,000881hhhhhhhhh,001,,,2023-12-10_18h29.06.041,face_recognition_ERP_protocol,2022.2.5,59.98807439173979,
Celebs/22_Emma_Watson_0010.jpg,non_target,2,0,2,0,0,25,25,10,,,,,,,,,313.2971131999511,313.2971131999511,313.7973742999602,,,,,,000881hhhhhhhhh,001,,,2023-12-10_18h29.06.041,face_recognition_ERP_protocol,2022.2.5,59.98807439173979,
Celebs/47_Johnny_Depp_0004.jpg,non_target,2,0,2,0,0,26,26,75,,,,,,,,,314.29799700004514,314.29799700004514,314.7983805000549,,,,,,000881hhhhhhhhh,001,,,2023-12-10_18h29.06.041,face_recognition_ERP_protocol,2022.2.5,59.98807439173979,
Celebs/48_Johnny_Depp_0001.jpg,non_target,2,0,2,0,0,27,27,104,,,,,,,,,315.3011134000262,315.3011134000262,315.79953640000895,,,,,,000881hhhhhhhhh,001,,,2023-12-10_18h29.06.041,face_recognition_ERP_protocol,2022.2.5,59.98807439173979,
Celebs/18_Daniel_Radcliffe_0002.jpg,target,2,0,2,0,0,28,28,119,,,,,,,,,316.3006558000343,316.3006558000343,316.8003242999548,,,,,,000881hhhhhhhhh,001,,,2023-12-10_18h29.06.041,face_recognition_ERP_protocol,2022.2.5,59.98807439173979,
Celebs/19_Margot_Robbie_0001.jpg,non_target,2,0,2,0,0,29,29,50,,,,,,,,,317.3027820000425,317.3027820000425,317.8015830999939,,,,,,000881hhhhhhhhh,001,,,2023-12-10_18h29.06.041,face_recognition_ERP_protocol,2022.2.5,59.98807439173979,
Celebs/44_Will_Smith_0006.jpg,non_target,2,0,2,0,0,30,30,40,,,,,,,,,318.302642500028,318.302642500028,318.802775499993,,,,,,000881hhhhhhhhh,001,,,2023-12-10_18h29.06.041,face_recognition_ERP_protocol,2022.2.5,59.98807439173979,
Celebs/29_Scarlett_Johansson_0016.jpg,non_target,2,0,2,0,0,31,31,2,,,,,,,,,319.32412650005426,319.32412650005426,319.8063097000122,,,,,,000881hhhhhhhhh,001,,,2023-12-10_18h29.06.041,face_recognition_ERP_protocol,2022.2.5,59.98807439173979,
Celebs/23_Emma_Stone_0014.jpg,non_target,2,0,2,0,0,32,32,11,,,,,,,,,320.309635899961,320.309635899961,320.80639759998303,,,,,,000881hhhhhhhhh,001,,,2023-12-10_18h29.06.041,face_recognition_ERP_protocol,2022.2.5,59.98807439173979,
Celebs/36_Neil_Patrick_Harris_0010.jpg,non_target,2,0,2,0,0,33,33,77,,,,,,,,,321.32409779995214,321.32409779995214,321.7899862000486,,,,,,000881hhhhhhhhh,001,,,2023-12-10_18h29.06.041,face_recognition_ERP_protocol,2022.2.5,59.98807439173979,
Celebs/50_Jackie_Chan_0014.jpg,non_target,2,0,2,0,0,34,34,37,,,,,,,,,322.2919663999928,322.2919663999928,322.78994210006204,,,,,,000881hhhhhhhhh,001,,,2023-12-10_18h29.06.041,face_recognition_ERP_protocol,2022.2.5,59.98807439173979,
Celebs/14_Emma_Watson_0015.jpg,non_target,2,0,2,0,0,35,35,55,,,,,,,,,323.3104850000236,323.3104850000236,323.79536049999297,,,,,,000881hhhhhhhhh,001,,,2023-12-10_18h29.06.041,face_recognition_ERP_protocol,2022.2.5,59.98807439173979,
Celebs/48_Johnny_Depp_0003.jpg,non_target,2,0,2,0,0,36,36,54,,,,,,,,,324.29399759997614,324.29399759997614,324.7967099000234,,,,,,000881hhhhhhhhh,001,,,2023-12-10_18h29.06.041,face_recognition_ERP_protocol,2022.2.5,59.98807439173979,
Celebs/19_Emma_Stone_0006.jpg,non_target,2,0,2,0,0,37,37,65,,,,,,,,,325.3120565999998,325.3120565999998,325.79714010003954,,,,,,000881hhhhhhhhh,001,,,2023-12-10_18h29.06.041,face_recognition_ERP_protocol,2022.2.5,59.98807439173979,
Celebs/16_Emma_Stone_0014.jpg,non_target,2,0,2,0,0,38,38,39,,,,,,,,,326.29776149999816,326.29776149999816,326.7972574000014,,,,,,000881hhhhhhhhh,001,,,2023-12-10_18h29.06.041,face_recognition_ERP_protocol,2022.2.5,59.98807439173979,
Celebs/14_Emma_Watson_0013.jpg,non_target,2,0,2,0,0,39,39,19,,,,,,,,,327.29591970006004,327.29591970006004,327.801744800061,,,,,,000881hhhhhhhhh,001,,,2023-12-10_18h29.06.041,face_recognition_ERP_protocol,2022.2.5,59.98807439173979,
Celebs/39_Neil_Patrick_Harris_0001.jpg,non_target,2,0,2,0,0,40,40,4,,,,,,,,,328.29745670000557,328.29745670000557,328.8047093000496,,,,,,000881hhhhhhhhh,001,,,2023-12-10_18h29.06.041,face_recognition_ERP_protocol,2022.2.5,59.98807439173979,
Celebs/36_Neil_Patrick_Harris_0007.jpg,non_target,2,0,2,0,0,41,41,5,,,,,,,,,329.2978050999809,329.2978050999809,329.7979511000449,,,,,,000881hhhhhhhhh,001,,,2023-12-10_18h29.06.041,face_recognition_ERP_protocol,2022.2.5,59.98807439173979,
Celebs/17_Margot_Robbie_0006.jpg,non_target,2,0,2,0,0,42,42,16,,,,,,,,,330.30038939998485,330.30038939998485,330.7996951000532,,,,,,000881hhhhhhhhh,001,,,2023-12-10_18h29.06.041,face_recognition_ERP_protocol,2022.2.5,59.98807439173979,
Celebs/21_Emma_Stone_0003.jpg,non_target,2,0,2,0,0,43,43,24,,,,,,,,,331.30047320004087,331.30047320004087,331.8019764999626,,,,,,000881hhhhhhhhh,001,,,2023-12-10_18h29.06.041,face_recognition_ERP_protocol,2022.2.5,59.98807439173979,
Celebs/21_Margot_Robbie_0003.jpg,non_target,2,0,2,0,0,44,44,26,,,,,,,,,332.3175580999814,332.3175580999814,332.80134979996365,,,,,,000881hhhhhhhhh,001,,,2023-12-10_18h29.06.041,face_recognition_ERP_protocol,2022.2.5,59.98807439173979,
Celebs/40_Will_Smith_0012.jpg,non_target,2,0,2,0,0,45,45,108,,,,,,,,,333.31851859996095,333.31851859996095,333.80235959996935,,,,,,000881hhhhhhhhh,001,,,2023-12-10_18h29.06.041,face_recognition_ERP_protocol,2022.2.5,59.98807439173979,
Celebs/54_Jackie_Chan_0014.jpg,non_target,2,0,2,0,0,46,46,109,,,,,,,,,334.31116329994984,334.31116329994984,334.80924930004403,,,,,,000881hhhhhhhhh,001,,,2023-12-10_18h29.06.041,face_recognition_ERP_protocol,2022.2.5,59.98807439173979,
Celebs/33_Neil_Patrick_Harris_0011.jpg,non_target,2,0,2,0,0,47,47,110,,,,,,,,,335.32173069997225,335.32173069997225,,,,,,,000881hhhhhhhhh,001,,,2023-12-10_18h29.06.041,face_recognition_ERP_protocol,2022.2.5,59.98807439173979,
Celebs/42_Will_Smith_0012.jpg,non_target,2,0,2,0,0,48,48,63,,,,,,,,,336.52335380006116,336.52335380006116,336.7917968999827,,,,,,000881hhhhhhhhh,001,,,2023-12-10_18h29.06.041,face_recognition_ERP_protocol,2022.2.5,59.98807439173979,
Celebs/24_Scarlett_Johansson_0011.jpg,non_target,2,0,2,0,0,49,49,98,,,,,,,,,337.3078585000476,337.3078585000476,337.79198239999823,,,,,,000881hhhhhhhhh,001,,,2023-12-10_18h29.06.041,face_recognition_ERP_protocol,2022.2.5,59.98807439173979,
Celebs/36_Jim_Parsons_0011.jpg,non_target,2,0,2,0,0,50,50,84,,,,,,,,,338.3082749999594,338.3082749999594,338.792771599954,,,,,,000881hhhhhhhhh,001,,,2023-12-10_18h29.06.041,face_recognition_ERP_protocol,2022.2.5,59.98807439173979,
Celebs/20_Margot_Robbie_0004.jpg,non_target,2,0,2,0,0,51,51,114,,,,,,,,,339.3084712000564,339.3084712000564,339.80903210002,,,,,,000881hhhhhhhhh,001,,,2023-12-10_18h29.06.041,face_recognition_ERP_protocol,2022.2.5,59.98807439173979,
Celebs/55_Jackie_Chan_0008.jpg,non_target,2,0,2,0,0,52,52,90,,,,,,,,,340.30933309998363,340.30933309998363,340.79426640004385,,,,,,000881hhhhhhhhh,001,,,2023-12-10_18h29.06.041,face_recognition_ERP_protocol,2022.2.5,59.98807439173979,
Celebs/19_Margot_Robbie_0004.jpg,non_target,2,0,2,0,0,53,53,41,,,,,,,,,341.31044090003707,341.31044090003707,341.7954869000241,,,,,,000881hhhhhhhhh,001,,,2023-12-10_18h29.06.041,face_recognition_ERP_protocol,2022.2.5,59.98807439173979,
Celebs/45_Will_Smith_0014.jpg,non_target,2,0,2,0,0,54,54,58,,,,,,,,,342.3117762999609,342.3117762999609,342.7972347000614,,,,,,000881hhhhhhhhh,001,,,2023-12-10_18h29.06.041,face_recognition_ERP_protocol,2022.2.5,59.98807439173979,
Celebs/23_Daniel_Radcliffe_0002.jpg,target,2,0,2,0,0,55,55,118,,,,,,,,,343.29789289995097,343.29789289995097,343.79776310001034,,,,,,000881hhhhhhhhh,001,,,2023-12-10_18h29.06.041,face_recognition_ERP_protocol,2022.2.5,59.98807439173979,
Celebs/57_Jackie_Chan_0010.jpg,non_target,2,0,2,0,0,56,56,61,,,,,,,,,344.3139508999884,344.3139508999884,344.79871959995944,,,,,,000881hhhhhhhhh,001,,,2023-12-10_18h29.06.041,face_recognition_ERP_protocol,2022.2.5,59.98807439173979,
Celebs/16_Emma_Stone_0012.jpg,non_target,2,0,2,0,0,57,57,69,,,,,,,,,345.315076900064,345.315076900064,345.79998010001145,,,,,,000881hhhhhhhhh,001,,,2023-12-10_18h29.06.041,face_recognition_ERP_protocol,2022.2.5,59.98807439173979,
Celebs/17_Emma_Watson_0006.jpg,non_target,2,0,2,0,0,58,58,88,,,,,,,,,346.3159500999609,346.3159500999609,346.8023566000629,,,,,,000881hhhhhhhhh,001,,,2023-12-10_18h29.06.041,face_recognition_ERP_protocol,2022.2.5,59.98807439173979,
Celebs/37_Will_Smith_0015.jpg,non_target,2,0,2,0,0,59,59,111,,,,,,,,,347.31705239997245,347.31705239997245,347.8021182999946,,,,,,000881hhhhhhhhh,001,,,2023-12-10_18h29.06.041,face_recognition_ERP_protocol,2022.2.5,59.98807439173979,
Celebs/21_Scarlett_Johansson_0007.jpg,non_target,2,0,2,0,0,60,60,117,,,,,,,,,348.31815089995507,348.31815089995507,348.8032674000133,,,,,,000881hhhhhhhhh,001,,,2023-12-10_18h29.06.041,face_recognition_ERP_protocol,2022.2.5,59.98807439173979,
Celebs/22_Emma_Watson_0001.jpg,non_target,2,0,2,0,0,61,61,57,,,,,,,,,349.31922599999234,349.31922599999234,349.8041785999667,,,,,,000881hhhhhhhhh,001,,,2023-12-10_18h29.06.041,face_recognition_ERP_protocol,2022.2.5,59.98807439173979,
Celebs/35_Neil_Patrick_Harris_0009.jpg,non_target,2,0,2,0,0,62,62,85,,,,,,,,,350.32036310003605,350.32036310003605,350.80549589998554,,,,,,000881hhhhhhhhh,001,,,2023-12-10_18h29.06.041,face_recognition_ERP_protocol,2022.2.5,59.98807439173979,
Celebs/43_Will_Smith_0007.jpg,non_target,2,0,2,0,0,63,63,73,,,,,,,,,351.3214229999576,351.3214229999576,351.80657889996655,,,,,,000881hhhhhhhhh,001,,,2023-12-10_18h29.06.041,face_recognition_ERP_protocol,2022.2.5,59.98807439173979,
Celebs/37_Neil_Patrick_Harris_0010.jpg,non_target,2,0,2,0,0,64,64,91,,,,,,,,,352.30605530005414,352.30605530005414,352.7906065999996,,,,,,000881hhhhhhhhh,001,,,2023-12-10_18h29.06.041,face_recognition_ERP_protocol,2022.2.5,59.98807439173979,
Celebs/24_Scarlett_Johansson_0001.jpg,non_target,2,0,2,0,0,65,65,9,,,,,,,,,353.30683300003875,353.30683300003875,353.79190760001075,,,,,,000881hhhhhhhhh,001,,,2023-12-10_18h29.06.041,face_recognition_ERP_protocol,2022.2.5,59.98807439173979,
Celebs/21_Daniel_Radcliffe_0009.jpg,target,2,0,2,0,0,66,66,81,,,,,,,,,354.30810490006115,354.30810490006115,354.79399809997994,,,,,,000881hhhhhhhhh,001,,,2023-12-10_18h29.06.041,face_recognition_ERP_protocol,2022.2.5,59.98807439173979,
Celebs/43_Will_Smith_0006.jpg,non_target,2,0,2,0,0,67,67,60,,,,,,,,,355.2941032999661,355.2941032999661,355.7939478000626,,,,,,000881hhhhhhhhh,001,,,2023-12-10_18h29.06.041,face_recognition_ERP_protocol,2022.2.5,59.98807439173979,
Celebs/50_Johnny_Depp_0010.jpg,non_target,2,0,2,0,0,68,68,113,,,,,,,,,356.3105370999547,356.3105370999547,356.79501280002296,,,,,,000881hhhhhhhhh,001,,,2023-12-10_18h29.06.041,face_recognition_ERP_protocol,2022.2.5,59.98807439173979,
Celebs/50_Johnny_Depp_0004.jpg,non_target,2,0,2,0,0,69,69,38,,,,,,,,,357.31154929997865,357.31154929997865,357.79631290002726,,,,,,000881hhhhhhhhh,001,,,2023-12-10_18h29.06.041,face_recognition_ERP_protocol,2022.2.5,59.98807439173979,
Celebs/55_Jackie_Chan_0015.jpg,non_target,2,0,2,0,0,70,70,29,,,,,,,,,358.3126113000326,358.3126113000326,358.79745389998425,,,,,,000881hhhhhhhhh,001,,,2023-12-10_18h29.06.041,face_recognition_ERP_protocol,2022.2.5,59.98807439173979,
Celebs/47_Johnny_Depp_0003.jpg,non_target,2,0,2,0,0,71,71,8,,,,,,,,,359.3136532000499,359.3136532000499,359.79837370000314,,,,,,000881hhhhhhhhh,001,,,2023-12-10_18h29.06.041,face_recognition_ERP_protocol,2022.2.5,59.98807439173979,
Celebs/32_Jim_Parsons_0016.jpg,non_target,2,0,2,0,0,72,72,100,,,,,,,,,360.29941089998465,360.29941089998465,360.7994762000162,,,,,,000881hhhhhhhhh,001,,,2023-12-10_18h29.06.041,face_recognition_ERP_protocol,2022.2.5,59.98807439173979,
Celebs/24_Daniel_Radcliffe_0017.jpg,target,2,0,2,0,0,73,73,70,,,,,,,,,361.3157995999791,361.3157995999791,361.80047530005686,,,,,,000881hhhhhhhhh,001,,,2023-12-10_18h29.06.041,face_recognition_ERP_protocol,2022.2.5,59.98807439173979,
Celebs/49_Johnny_Depp_0013.jpg,non_target,2,0,2,0,0,74,74,32,,,,,,,,,362.31740579998586,362.31740579998586,362.8018619000213,,,,,,000881hhhhhhhhh,001,,,2023-12-10_18h29.06.041,face_recognition_ERP_protocol,2022.2.5,59.98807439173979,
Celebs/50_Johnny_Depp_0018.jpg,non_target,2,0,2,0,0,75,75,23,,,,,,,,,363.31803299998865,363.31803299998865,363.8030196999898,,,,,,000881hhhhhhhhh,001,,,2023-12-10_18h29.06.041,face_recognition_ERP_protocol,2022.2.5,59.98807439173979,
Celebs/34_Neil_Patrick_Harris_0007.jpg,non_target,2,0,2,0,0,76,76,116,,,,,,,,,364.3039021999575,364.3039021999575,364.803802600014,,,,,,000881hhhhhhhhh,001,,,2023-12-10_18h29.06.041,face_recognition_ERP_protocol,2022.2.5,59.98807439173979,
Celebs/38_Will_Smith_0013.jpg,non_target,2,0,2,0,0,77,77,12,,,,,,,,,365.32004510005936,365.32004510005936,365.80490630003624,,,,,,000881hhhhhhhhh,001,,,2023-12-10_18h29.06.041,face_recognition_ERP_protocol,2022.2.5,59.98807439173979,
Celebs/21_Emma_Watson_0004.jpg,non_target,2,0,2,0,0,78,78,20,,,,,,,,,366.3212007000111,366.3212007000111,366.80596779996995,,,,,,000881hhhhhhhhh,001,,,2023-12-10_18h29.06.041,face_recognition_ERP_protocol,2022.2.5,59.98807439173979,
Celebs/22_Scarlett_Johansson_0005.jpg,non_target,2,0,2,0,0,79,79,43,,,,,,,,,367.3225134999957,367.3225134999957,367.7905390999513,,,,,,000881hhhhhhhhh,001,,,2023-12-10_18h29.06.041,face_recognition_ERP_protocol,2022.2.5,59.98807439173979,
Celebs/16_Emma_Stone_0010.jpg,non_target,2,0,2,0,0,80,80,93,,,,,,,,,368.2914867999498,368.2914867999498,368.7916108999634,,,,,,000881hhhhhhhhh,001,,,2023-12-10_18h29.06.041,face_recognition_ERP_protocol,2022.2.5,59.98807439173979,
Celebs/24_Emma_Stone_0015.jpg,non_target,2,0,2,0,0,81,81,56,,,,,,,,,369.3080333999824,369.3080333999824,369.7926938000601,,,,,,000881hhhhhhhhh,001,,,2023-12-10_18h29.06.041,face_recognition_ERP_protocol,2022.2.5,59.98807439173979,
Celebs/18_Daniel_Radcliffe_0008.jpg,target,2,0,2,0,0,82,82,27,,,,,,,,,370.30907489999663,370.30907489999663,370.79414400004316,,,,,,000881hhhhhhhhh,001,,,2023-12-10_18h29.06.041,face_recognition_ERP_protocol,2022.2.5,59.98807439173979,
Celebs/44_Will_Smith_0015.jpg,non_target,2,0,2,0,0,83,83,99,,,,,,,,,371.309942199965,371.309942199965,371.79509230004624,,,,,,000881hhhhhhhhh,001,,,2023-12-10_18h29.06.041,face_recognition_ERP_protocol,2022.2.5,59.98807439173979,
Celebs/43_Will_Smith_0010.jpg,non_target,2,0,2,0,0,84,84,21,,,,,,,,,372.3111983999843,372.3111983999843,372.79724019998685,,,,,,000881hhhhhhhhh,001,,,2023-12-10_18h29.06.041,face_recognition_ERP_protocol,2022.2.5,59.98807439173979,
Celebs/23_Daniel_Radcliffe_0010.jpg,target,2,0,2,0,0,85,85,14,,,,,,,,,373.3125258999644,373.3125258999644,373.79735300003085,,,,,,000881hhhhhhhhh,001,,,2023-12-10_18h29.06.041,face_recognition_ERP_protocol,2022.2.5,59.98807439173979,
Celebs/21_Daniel_Radcliffe_0008.jpg,target,2,0,2,0,0,86,86,15,,,,,,,,,374.3157775000436,374.3157775000436,374.7980297000613,,,,,,000881hhhhhhhhh,001,,,2023-12-10_18h29.06.041,face_recognition_ERP_protocol,2022.2.5,59.98807439173979,
Celebs/28_Scarlett_Johansson_0005.jpg,non_target,2,0,2,0,0,87,87,49,,,,,,,,,375.316355500021,375.316355500021,375.7991198999807,,,,,,000881hhhhhhhhh,001,,,2023-12-10_18h29.06.041,face_recognition_ERP_protocol,2022.2.5,59.98807439173979,
Celebs/17_Margot_Robbie_0012.jpg,non_target,2,0,2,0,0,88,88,66,,,,,,,,,376.3168080999749,376.3168080999749,376.80037439998705,,,,,,000881hhhhhhhhh,001,,,2023-12-10_18h29.06.041,face_recognition_ERP_protocol,2022.2.5,59.98807439173979,
Celebs/31_Neil_Patrick_Harris_0008.jpg,non_target,2,0,2,0,0,89,89,97,,,,,,,,,377.3169751999667,377.3169751999667,377.80144059995655,,,,,,000881hhhhhhhhh,001,,,2023-12-10_18h29.06.041,face_recognition_ERP_protocol,2022.2.5,59.98807439173979,
Celebs/20_Scarlett_Johansson_0011.jpg,non_target,2,0,2,0,0,90,90,107,,,,,,,,,378.3024769000476,378.3024769000476,378.8026594000403,,,,,,000881hhhhhhhhh,001,,,2023-12-10_18h29.06.041,face_recognition_ERP_protocol,2022.2.5,59.98807439173979,
Celebs/45_Johnny_Depp_0003.jpg,non_target,2,0,2,0,0,91,91,106,,,,,,,,,379.32095349999145,379.32095349999145,379.803641699953,,,,,,000881hhhhhhhhh,001,,,2023-12-10_18h29.06.041,face_recognition_ERP_protocol,2022.2.5,59.98807439173979,
Celebs/40_Jim_Parsons_0015.jpg,non_target,2,0,2,0,0,92,92,44,,,,,,,,,380.3199845000636,380.3199845000636,380.8046898000175,,,,,,000881hhhhhhhhh,001,,,2023-12-10_18h29.06.041,face_recognition_ERP_protocol,2022.2.5,59.98807439173979,
Celebs/50_Johnny_Depp_0008.jpg,non_target,2,0,2,0,0,93,93,82,,,,,,,,,381.3228474999778,381.3228474999778,381.8056594999507,,,,,,000881hhhhhhhhh,001,,,2023-12-10_18h29.06.041,face_recognition_ERP_protocol,2022.2.5,59.98807439173979,
Celebs/16_Margot_Robbie_0009.jpg,non_target,2,0,2,0,0,94,94,105,,,,,,,,,382.3245368000353,382.3245368000353,382.80680170003325,,,,,,000881hhhhhhhhh,001,,,2023-12-10_18h29.06.041,face_recognition_ERP_protocol,2022.2.5,59.98807439173979,
Celebs/58_Jackie_Chan_0005.jpg,non_target,2,0,2,0,0,95,95,3,,,,,,,,,383.3068502000533,383.3068502000533,383.7913118000142,,,,,,000881hhhhhhhhh,001,,,2023-12-10_18h29.06.041,face_recognition_ERP_protocol,2022.2.5,59.98807439173979,
Celebs/15_Margot_Robbie_0005.jpg,non_target,2,0,2,0,0,96,96,78,,,,,,,,,384.30947770003695,384.30947770003695,384.7920668000588,,,,,,000881hhhhhhhhh,001,,,2023-12-10_18h29.06.041,face_recognition_ERP_protocol,2022.2.5,59.98807439173979,
Celebs/15_Margot_Robbie_0012.jpg,non_target,2,0,2,0,0,97,97,80,,,,,,,,,385.3109338999493,385.3109338999493,385.7937847999856,,,,,,000881hhhhhhhhh,001,,,2023-12-10_18h29.06.041,face_recognition_ERP_protocol,2022.2.5,59.98807439173979,
Celebs/34_Neil_Patrick_Harris_0004.jpg,non_target,2,0,2,0,0,98,98,102,,,,,,,,,386.3100632999558,386.3100632999558,386.7947019999847,,,,,,000881hhhhhhhhh,001,,,2023-12-10_18h29.06.041,face_recognition_ERP_protocol,2022.2.5,59.98807439173979,
,,,,,,,,,,,,,,,,,,387.31070739997085,387.31070739997085,,,,,,,,,,,,,,,
