image,stimulus,trial_block.thisRepN,trial_block.thisTrialN,trial_block.thisN,trial_block.thisIndex,trials.thisRepN,trials.thisTrialN,trials.thisN,trials.thisIndex,welcome_text.started,instructions_text.started,spacebar_key.started,spacebar_key.keys,spacebar_key.rt,eye_text.started,eye_text.stopped,text.started,text.stopped,closedEyes_text.started,beep.started,closedEyes_text.stopped,trialImage.started,polygon.started,blank_text.started,trialBlockText.started,new_trialblock.started,new_trialblock.keys,new_trialblock.rt,goodbye_text.started,participant,session,age,gender,date,expName,psychopyVersion,frameRate,
,,,,,,,,,,33.87513500000932,35.877410199987935,35.877410199987935,space,1.2400218999828212,,,,,,,,,,,,,,,,11,004,21,Male,2023-05-02_17h27.51.461,face_recognition_ERP_protocol,2022.2.5,59.954842011145466,
Celebs/32_Jim_Parsons_0018.jpg,non_target,0,0,0,0,0,0,0,46,,,,,,37.14547630000743,52.14577060000738,52.14577060000738,67.14608499998576,67.14608499998576,82.14635031000361,82.1463439000072,82.21309480001219,82.21309480001219,82.66375780000817,,,,,,11,004,21,Male,2023-05-02_17h27.51.461,face_recognition_ERP_protocol,2022.2.5,59.954842011145466,
Celebs/19_Emma_Stone_0006.jpg,non_target,0,0,0,0,0,1,1,66,,,,,,,,,,,,,83.16433420000249,83.16433420000249,83.66488900000695,,,,,,11,004,21,Male,2023-05-02_17h27.51.461,face_recognition_ERP_protocol,2022.2.5,59.954842011145466,
Celebs/17_Margot_Robbie_0006.jpg,non_target,0,0,0,0,0,2,2,17,,,,,,,,,,,,,84.1654741000093,84.1654741000093,84.66587580001215,,,,,,11,004,21,Male,2023-05-02_17h27.51.461,face_recognition_ERP_protocol,2022.2.5,59.954842011145466,
Celebs/14_Emma_Watson_0015.jpg,non_target,0,0,0,0,0,3,3,56,,,,,,,,,,,,,85.16675309999846,85.16675309999846,85.66698439998436,,,,,,11,004,21,Male,2023-05-02_17h27.51.461,face_recognition_ERP_protocol,2022.2.5,59.954842011145466,
Celebs/47_Johnny_Depp_0009.jpg,non_target,0,0,0,0,0,4,4,23,,,,,,,,,,,,,86.16806820000056,86.16806820000056,86.66814580000937,,,,,,11,004,21,Male,2023-05-02_17h27.51.461,face_recognition_ERP_protocol,2022.2.5,59.954842011145466,
Celebs/34_Neil_Patrick_Harris_0007.jpg,non_target,0,0,0,0,0,5,5,117,,,,,,,,,,,,,87.16884779999964,87.16884779999964,87.6695544999966,,,,,,11,004,21,Male,2023-05-02_17h27.51.461,face_recognition_ERP_protocol,2022.2.5,59.954842011145466,
Celebs/28_Scarlett_Johansson_0005.jpg,non_target,0,0,0,0,0,6,6,50,,,,,,,,,,,,,88.17094869998982,88.17094869998982,88.6707797999843,,,,,,11,004,21,Male,2023-05-02_17h27.51.461,face_recognition_ERP_protocol,2022.2.5,59.954842011145466,
Celebs/39_Jim_Parsons_0008.jpg,non_target,0,0,0,0,0,7,7,89,,,,,,,,,,,,,89.17166339998948,89.17166339998948,89.67150599998422,,,,,,11,004,21,Male,2023-05-02_17h27.51.461,face_recognition_ERP_protocol,2022.2.5,59.954842011145466,
Celebs/24_Scarlett_Johansson_0001.jpg,non_target,0,0,0,0,0,8,8,10,,,,,,,,,,,,,90.17227310000453,90.17227310000453,90.67280390000087,,,,,,11,004,21,Male,2023-05-02_17h27.51.461,face_recognition_ERP_protocol,2022.2.5,59.954842011145466,
Celebs/50_Jackie_Chan_0014.jpg,non_target,0,0,0,0,0,9,9,38,,,,,,,,,,,,,91.17349690000992,91.17349690000992,91.67381989999558,,,,,,11,004,21,Male,2023-05-02_17h27.51.461,face_recognition_ERP_protocol,2022.2.5,59.954842011145466,
Celebs/40_Jim_Parsons_0004.jpg,non_target,0,0,0,0,0,10,10,73,,,,,,,,,,,,,92.17456749998382,92.17456749998382,92.67495869999402,,,,,,11,004,21,Male,2023-05-02_17h27.51.461,face_recognition_ERP_protocol,2022.2.5,59.954842011145466,
Celebs/22_Scarlett_Johansson_0005.jpg,non_target,0,0,0,0,0,11,11,44,,,,,,,,,,,,,93.17568149999715,93.17568149999715,93.6760743999912,,,,,,11,004,21,Male,2023-05-02_17h27.51.461,face_recognition_ERP_protocol,2022.2.5,59.954842011145466,
Celebs/47_Johnny_Depp_0004.jpg,non_target,0,0,0,0,0,12,12,76,,,,,,,,,,,,,94.17678839998553,94.17678839998553,94.67724550000275,,,,,,11,004,21,Male,2023-05-02_17h27.51.461,face_recognition_ERP_protocol,2022.2.5,59.954842011145466,
Celebs/45_Will_Smith_0014.jpg,non_target,0,0,0,0,0,13,13,59,,,,,,,,,,,,,95.1778714999964,95.1778714999964,95.67837300000247,,,,,,11,004,21,Male,2023-05-02_17h27.51.461,face_recognition_ERP_protocol,2022.2.5,59.954842011145466,
Celebs/57_Jackie_Chan_0008.jpg,non_target,0,0,0,0,0,14,14,72,,,,,,,,,,,,,96.18084779998753,96.18084779998753,96.67957969999406,,,,,,11,004,21,Male,2023-05-02_17h27.51.461,face_recognition_ERP_protocol,2022.2.5,59.954842011145466,
Celebs/21_Daniel_Radcliffe_0009.jpg,target,0,0,0,0,0,15,15,83,,,,,,,,,,,,,97.18008220000775,97.18008220000775,97.66387809999287,,,,,,11,004,21,Male,2023-05-02_17h27.51.461,face_recognition_ERP_protocol,2022.2.5,59.954842011145466,
Celebs/44_Will_Smith_0007.jpg,non_target,0,0,0,0,0,16,16,65,,,,,,,,,,,,,98.16450610000174,98.16450610000174,98.66518549999455,,,,,,11,004,21,Male,2023-05-02_17h27.51.461,face_recognition_ERP_protocol,2022.2.5,59.954842011145466,
Celebs/39_Jim_Parsons_0004.jpg,non_target,0,0,0,0,0,17,17,88,,,,,,,,,,,,,99.16565089998767,99.16565089998767,99.666212000011,,,,,,11,004,21,Male,2023-05-02_17h27.51.461,face_recognition_ERP_protocol,2022.2.5,59.954842011145466,
Celebs/14_Emma_Watson_0013.jpg,non_target,0,0,0,0,0,18,18,20,,,,,,,,,,,,,100.16681709999102,100.16681709999102,100.66725319999387,,,,,,11,004,21,Male,2023-05-02_17h27.51.461,face_recognition_ERP_protocol,2022.2.5,59.954842011145466,
Celebs/32_Jim_Parsons_0016.jpg,non_target,0,0,0,0,0,19,19,102,,,,,,,,,,,,,101.16797370000859,101.16797370000859,101.66838630000711,,,,,,11,004,21,Male,2023-05-02_17h27.51.461,face_recognition_ERP_protocol,2022.2.5,59.954842011145466,
Celebs/21_Emma_Watson_0004.jpg,non_target,0,0,0,0,0,20,20,21,,,,,,,,,,,,,102.16908970000804,102.16908970000804,102.66954989999067,,,,,,11,004,21,Male,2023-05-02_17h27.51.461,face_recognition_ERP_protocol,2022.2.5,59.954842011145466,
Celebs/31_Neil_Patrick_Harris_0008.jpg,non_target,0,0,0,0,0,21,21,99,,,,,,,,,,,,,103.17018479999388,103.17018479999388,103.67070879999665,,,,,,11,004,21,Male,2023-05-02_17h27.51.461,face_recognition_ERP_protocol,2022.2.5,59.954842011145466,
Celebs/37_Neil_Patrick_Harris_0010.jpg,non_target,0,0,0,0,0,22,22,93,,,,,,,,,,,,,104.17140719998861,104.17140719998861,104.67188059998443,,,,,,11,004,21,Male,2023-05-02_17h27.51.461,face_recognition_ERP_protocol,2022.2.5,59.954842011145466,
Celebs/39_Neil_Patrick_Harris_0001.jpg,non_target,0,0,0,0,0,23,23,4,,,,,,,,,,,,,105.17258889999357,105.17258889999357,105.67297909999616,,,,,,11,004,21,Male,2023-05-02_17h27.51.461,face_recognition_ERP_protocol,2022.2.5,59.954842011145466,
Celebs/48_Johnny_Depp_0003.jpg,non_target,0,0,0,0,0,24,24,55,,,,,,,,,,,,,106.17357600000105,106.17357600000105,106.6740826999885,,,,,,11,004,21,Male,2023-05-02_17h27.51.461,face_recognition_ERP_protocol,2022.2.5,59.954842011145466,
Celebs/18_Daniel_Radcliffe_0008.jpg,target,0,0,0,0,0,25,25,28,,,,,,,,,,,,,107.17478900001151,107.17478900001151,107.67520810000133,,,,,,11,004,21,Male,2023-05-02_17h27.51.461,face_recognition_ERP_protocol,2022.2.5,59.954842011145466,
Celebs/38_Neil_Patrick_Harris_0006.jpg,non_target,0,0,0,0,0,26,26,31,,,,,,,,,,,,,108.17593269998906,108.17593269998906,108.67636630000197,,,,,,11,004,21,Male,2023-05-02_17h27.51.461,face_recognition_ERP_protocol,2022.2.5,59.954842011145466,
Celebs/27_Scarlett_Johansson_0012.jpg,non_target,0,0,0,0,0,27,27,78,,,,,,,,,,,,,109.17708620001213,109.17708620001213,109.677489099995,,,,,,11,004,21,Male,2023-05-02_17h27.51.461,face_recognition_ERP_protocol,2022.2.5,59.954842011145466,
Celebs/20_Margot_Robbie_0006.jpg,non_target,0,0,0,0,0,28,28,35,,,,,,,,,,,,,110.17816109998967,110.17816109998967,110.67864609998651,,,,,,11,004,21,Male,2023-05-02_17h27.51.461,face_recognition_ERP_protocol,2022.2.5,59.954842011145466,
Celebs/24_Emma_Stone_0015.jpg,non_target,0,0,0,0,0,29,29,57,,,,,,,,,,,,,111.1793483000074,111.1793483000074,111.67978539998876,,,,,,11,004,21,Male,2023-05-02_17h27.51.461,face_recognition_ERP_protocol,2022.2.5,59.954842011145466,
Celebs/58_Jackie_Chan_0005.jpg,non_target,0,0,0,0,0,30,30,3,,,,,,,,,,,,,112.18052049999824,112.18052049999824,112.66420900000958,,,,,,11,004,21,Male,2023-05-02_17h27.51.461,face_recognition_ERP_protocol,2022.2.5,59.954842011145466,
Celebs/37_Will_Smith_0015.jpg,non_target,0,0,0,0,0,31,31,113,,,,,,,,,,,,,113.16489099999308,113.16489099999308,113.66544479998993,,,,,,11,004,21,Male,2023-05-02_17h27.51.461,face_recognition_ERP_protocol,2022.2.5,59.954842011145466,
Celebs/44_Will_Smith_0006.jpg,non_target,0,0,0,0,0,32,32,41,,,,,,,,,,,,,114.16605369999888,114.16605369999888,114.66650759999175,,,,,,11,004,21,Male,2023-05-02_17h27.51.461,face_recognition_ERP_protocol,2022.2.5,59.954842011145466,
Celebs/20_Emma_Stone_0005.jpg,non_target,0,0,0,0,0,33,33,63,,,,,,,,,,,,,115.16718799999217,115.16718799999217,115.66761709999992,,,,,,11,004,21,Male,2023-05-02_17h27.51.461,face_recognition_ERP_protocol,2022.2.5,59.954842011145466,
Celebs/38_Jim_Parsons_0003.jpg,non_target,0,0,0,0,0,34,34,53,,,,,,,,,,,,,116.16839239999535,116.16839239999535,116.66875660000369,,,,,,11,004,21,Male,2023-05-02_17h27.51.461,face_recognition_ERP_protocol,2022.2.5,59.954842011145466,
Celebs/18_Emma_Stone_0016.jpg,non_target,0,0,0,0,0,35,35,52,,,,,,,,,,,,,117.16954030000488,117.16954030000488,117.66991070000222,,,,,,11,004,21,Male,2023-05-02_17h27.51.461,face_recognition_ERP_protocol,2022.2.5,59.954842011145466,
Celebs/44_Will_Smith_0015.jpg,non_target,0,0,0,0,0,36,36,101,,,,,,,,,,,,,118.17051090000314,118.17051090000314,118.67107680000481,,,,,,11,004,21,Male,2023-05-02_17h27.51.461,face_recognition_ERP_protocol,2022.2.5,59.954842011145466,
Celebs/21_Daniel_Radcliffe_0008.jpg,target,0,0,0,0,0,37,37,16,,,,,,,,,,,,,119.17171130000497,119.17171130000497,119.67217790000723,,,,,,11,004,21,Male,2023-05-02_17h27.51.461,face_recognition_ERP_protocol,2022.2.5,59.954842011145466,
Celebs/20_Scarlett_Johansson_0011.jpg,non_target,0,0,0,0,0,38,38,109,,,,,,,,,,,,,120.17279949999647,120.17279949999647,120.67329279999831,,,,,,11,004,21,Male,2023-05-02_17h27.51.461,face_recognition_ERP_protocol,2022.2.5,59.954842011145466,
Celebs/21_Emma_Stone_0003.jpg,non_target,0,0,0,0,0,39,39,25,,,,,,,,,,,,,121.17392840000684,121.17392840000684,121.67463679998764,,,,,,11,004,21,Male,2023-05-02_17h27.51.461,face_recognition_ERP_protocol,2022.2.5,59.954842011145466,
Celebs/49_Johnny_Depp_0013.jpg,non_target,0,0,0,0,0,40,40,33,,,,,,,,,,,,,122.17508529999759,122.17508529999759,122.67570170000545,,,,,,11,004,21,Male,2023-05-02_17h27.51.461,face_recognition_ERP_protocol,2022.2.5,59.954842011145466,
Celebs/20_Margot_Robbie_0004.jpg,non_target,0,0,0,0,0,41,41,116,,,,,,,,,,,,,123.17633290000958,123.17633290000958,123.67675059998874,,,,,,11,004,21,Male,2023-05-02_17h27.51.461,face_recognition_ERP_protocol,2022.2.5,59.954842011145466,
Celebs/40_Will_Smith_0012.jpg,non_target,0,0,0,0,0,42,42,110,,,,,,,,,,,,,124.17735109999194,124.17735109999194,124.67778369999724,,,,,,11,004,21,Male,2023-05-02_17h27.51.461,face_recognition_ERP_protocol,2022.2.5,59.954842011145466,
Celebs/45_Johnny_Depp_0003.jpg,non_target,0,0,0,0,0,43,43,108,,,,,,,,,,,,,125.17849379999097,125.17849379999097,125.67892700000084,,,,,,11,004,21,Male,2023-05-02_17h27.51.461,face_recognition_ERP_protocol,2022.2.5,59.954842011145466,
Celebs/51_Jackie_Chan_0006.jpg,non_target,0,0,0,0,0,44,44,97,,,,,,,,,,,,,126.17962119998992,126.17962119998992,126.68004589999327,,,,,,11,004,21,Male,2023-05-02_17h27.51.461,face_recognition_ERP_protocol,2022.2.5,59.954842011145466,
Celebs/22_Emma_Watson_0010.jpg,non_target,0,0,0,0,0,45,45,11,,,,,,,,,,,,,127.16410739999264,127.16410739999264,127.66451229999075,,,,,,11,004,21,Male,2023-05-02_17h27.51.461,face_recognition_ERP_protocol,2022.2.5,59.954842011145466,
Celebs/39_Jim_Parsons_0010.jpg,non_target,0,0,0,0,0,46,46,0,,,,,,,,,,,,,128.1652366000053,128.1652366000053,128.66570399998454,,,,,,11,004,21,Male,2023-05-02_17h27.51.461,face_recognition_ERP_protocol,2022.2.5,59.954842011145466,
Celebs/22_Emma_Watson_0003.jpg,non_target,0,0,0,0,0,47,47,91,,,,,,,,,,,,,129.16636679999647,129.16636679999647,129.6667543000076,,,,,,11,004,21,Male,2023-05-02_17h27.51.461,face_recognition_ERP_protocol,2022.2.5,59.954842011145466,
Celebs/23_Emma_Stone_0014.jpg,non_target,0,0,0,0,0,48,48,12,,,,,,,,,,,,,130.167472000001,130.167472000001,130.66791950000334,,,,,,11,004,21,Male,2023-05-02_17h27.51.461,face_recognition_ERP_protocol,2022.2.5,59.954842011145466,
Celebs/21_Margot_Robbie_0003.jpg,non_target,0,0,0,0,0,49,49,27,,,,,,,,,,,,,131.1686561999959,131.1686561999959,131.66904390000855,,,,,,11,004,21,Male,2023-05-02_17h27.51.461,face_recognition_ERP_protocol,2022.2.5,59.954842011145466,
Celebs/29_Scarlett_Johansson_0016.jpg,non_target,0,0,0,0,0,50,50,2,,,,,,,,,,,,,132.16974919999484,132.16974919999484,132.67021670000395,,,,,,11,004,21,Male,2023-05-02_17h27.51.461,face_recognition_ERP_protocol,2022.2.5,59.954842011145466,
Celebs/39_Neil_Patrick_Harris_0010.jpg,non_target,0,0,0,0,0,51,51,94,,,,,,,,,,,,,133.17083560000174,133.17083560000174,133.6713180000079,,,,,,11,004,21,Male,2023-05-02_17h27.51.461,face_recognition_ERP_protocol,2022.2.5,59.954842011145466,
Celebs/16_Margot_Robbie_0009.jpg,non_target,0,0,0,0,0,52,52,107,,,,,,,,,,,,,134.17199390000314,134.17199390000314,134.67251319999923,,,,,,11,004,21,Male,2023-05-02_17h27.51.461,face_recognition_ERP_protocol,2022.2.5,59.954842011145466,
Celebs/50_Jackie_Chan_0012.jpg,non_target,0,0,0,0,0,53,53,43,,,,,,,,,,,,,135.1731332000054,135.1731332000054,135.6735662999854,,,,,,11,004,21,Male,2023-05-02_17h27.51.461,face_recognition_ERP_protocol,2022.2.5,59.954842011145466,
Celebs/38_Will_Smith_0013.jpg,non_target,0,0,0,0,0,54,54,13,,,,,,,,,,,,,136.17420109998784,136.17420109998784,136.67478070000652,,,,,,11,004,21,Male,2023-05-02_17h27.51.461,face_recognition_ERP_protocol,2022.2.5,59.954842011145466,
Celebs/25_Scarlett_Johansson_0010.jpg,non_target,0,0,0,0,0,55,55,32,,,,,,,,,,,,,137.17532599999686,137.17532599999686,137.67582709999988,,,,,,11,004,21,Male,2023-05-02_17h27.51.461,face_recognition_ERP_protocol,2022.2.5,59.954842011145466,
Celebs/55_Jackie_Chan_0003.jpg,non_target,0,0,0,0,0,56,56,29,,,,,,,,,,,,,138.17651309998473,138.17651309998473,138.67693419998977,,,,,,11,004,21,Male,2023-05-02_17h27.51.461,face_recognition_ERP_protocol,2022.2.5,59.954842011145466,
Celebs/48_Johnny_Depp_0001.jpg,non_target,0,0,0,0,0,57,57,106,,,,,,,,,,,,,139.1776678999886,139.1776678999886,139.6780574999866,,,,,,11,004,21,Male,2023-05-02_17h27.51.461,face_recognition_ERP_protocol,2022.2.5,59.954842011145466,
Celebs/50_Johnny_Depp_0008.jpg,non_target,0,0,0,0,0,58,58,84,,,,,,,,,,,,,140.17876829998568,140.17876829998568,140.67920759998378,,,,,,11,004,21,Male,2023-05-02_17h27.51.461,face_recognition_ERP_protocol,2022.2.5,59.954842011145466,
Celebs/42_Will_Smith_0012.jpg,non_target,0,0,0,0,0,59,59,64,,,,,,,,,,,,,141.17995109999902,141.17995109999902,141.6803299000021,,,,,,11,004,21,Male,2023-05-02_17h27.51.461,face_recognition_ERP_protocol,2022.2.5,59.954842011145466,
Celebs/16_Emma_Stone_0012.jpg,non_target,0,0,0,0,0,60,60,70,,,,,,,,,,,,,142.16431819999707,142.16431819999707,142.66474340000423,,,,,,11,004,21,Male,2023-05-02_17h27.51.461,face_recognition_ERP_protocol,2022.2.5,59.954842011145466,
Celebs/50_Johnny_Depp_0010.jpg,non_target,0,0,0,0,0,61,61,115,,,,,,,,,,,,,143.16557280000416,143.16557280000416,143.6660065999895,,,,,,11,004,21,Male,2023-05-02_17h27.51.461,face_recognition_ERP_protocol,2022.2.5,59.954842011145466,
Celebs/16_Emma_Stone_0008.jpg,non_target,0,0,0,0,0,62,62,48,,,,,,,,,,,,,144.16671819999465,144.16671819999465,144.66707629998564,,,,,,11,004,21,Male,2023-05-02_17h27.51.461,face_recognition_ERP_protocol,2022.2.5,59.954842011145466,
Celebs/21_Emma_Stone_0002.jpg,non_target,0,0,0,0,0,63,63,103,,,,,,,,,,,,,145.1677684999886,145.1677684999886,145.6681503999862,,,,,,11,004,21,Male,2023-05-02_17h27.51.461,face_recognition_ERP_protocol,2022.2.5,59.954842011145466,
Celebs/26_Scarlett_Johansson_0008.jpg,non_target,0,0,0,0,0,64,64,47,,,,,,,,,,,,,146.16896139999153,146.16896139999153,146.66944639998837,,,,,,11,004,21,Male,2023-05-02_17h27.51.461,face_recognition_ERP_protocol,2022.2.5,59.954842011145466,
Celebs/39_Jim_Parsons_0001.jpg,non_target,0,0,0,0,0,65,65,49,,,,,,,,,,,,,147.16995380001026,147.16995380001026,147.67043860000558,,,,,,11,004,21,Male,2023-05-02_17h27.51.461,face_recognition_ERP_protocol,2022.2.5,59.954842011145466,
Celebs/43_Will_Smith_0006.jpg,non_target,0,0,0,0,0,66,66,61,,,,,,,,,,,,,148.17101610000827,148.17101610000827,148.6715286000108,,,,,,11,004,21,Male,2023-05-02_17h27.51.461,face_recognition_ERP_protocol,2022.2.5,59.954842011145466,
Celebs/29_Scarlett_Johansson_0010.jpg,non_target,0,0,0,0,0,67,67,85,,,,,,,,,,,,,149.17219019998447,149.17219019998447,149.67267920001177,,,,,,11,004,21,Male,2023-05-02_17h27.51.461,face_recognition_ERP_protocol,2022.2.5,59.954842011145466,
Celebs/19_Margot_Robbie_0001.jpg,non_target,0,0,0,0,0,68,68,51,,,,,,,,,,,,,150.1733358000056,150.1733358000056,150.67428179999115,,,,,,11,004,21,Male,2023-05-02_17h27.51.461,face_recognition_ERP_protocol,2022.2.5,59.954842011145466,
Celebs/48_Johnny_Depp_0005.jpg,non_target,0,0,0,0,0,69,69,54,,,,,,,,,,,,,151.17479039999307,151.17479039999307,151.67506310000317,,,,,,11,004,21,Male,2023-05-02_17h27.51.461,face_recognition_ERP_protocol,2022.2.5,59.954842011145466,
Celebs/33_Jim_Parsons_0011.jpg,non_target,0,0,0,0,0,70,70,34,,,,,,,,,,,,,152.17598729999736,152.17598729999736,152.67628509999486,,,,,,11,004,21,Male,2023-05-02_17h27.51.461,face_recognition_ERP_protocol,2022.2.5,59.954842011145466,
Celebs/36_Neil_Patrick_Harris_0007.jpg,non_target,0,0,0,0,0,71,71,5,,,,,,,,,,,,,153.17674950000946,153.17674950000946,153.67724630000885,,,,,,11,004,21,Male,2023-05-02_17h27.51.461,face_recognition_ERP_protocol,2022.2.5,59.954842011145466,
Celebs/40_Jim_Parsons_0015.jpg,non_target,0,0,0,0,0,72,72,45,,,,,,,,,,,,,154.1784284999885,154.1784284999885,154.67834489999223,,,,,,11,004,21,Male,2023-05-02_17h27.51.461,face_recognition_ERP_protocol,2022.2.5,59.954842011145466,
Celebs/47_Johnny_Depp_0003.jpg,non_target,0,0,0,0,0,73,73,9,,,,,,,,,,,,,155.17936479998752,155.17936479998752,155.67953269998543,,,,,,11,004,21,Male,2023-05-02_17h27.51.461,face_recognition_ERP_protocol,2022.2.5,59.954842011145466,
Celebs/52_Jackie_Chan_0002.jpg,non_target,0,0,0,0,0,74,74,68,,,,,,,,,,,,,156.18078289998812,156.18078289998812,156.66388050001115,,,,,,11,004,21,Male,2023-05-02_17h27.51.461,face_recognition_ERP_protocol,2022.2.5,59.954842011145466,
Celebs/35_Neil_Patrick_Harris_0009.jpg,non_target,0,0,0,0,0,75,75,87,,,,,,,,,,,,,157.16451790000428,157.16451790000428,157.66498450000654,,,,,,11,004,21,Male,2023-05-02_17h27.51.461,face_recognition_ERP_protocol,2022.2.5,59.954842011145466,
Celebs/43_Will_Smith_0007.jpg,non_target,0,0,0,0,0,76,76,74,,,,,,,,,,,,,158.165720399993,158.165720399993,158.66616759999306,,,,,,11,004,21,Male,2023-05-02_17h27.51.461,face_recognition_ERP_protocol,2022.2.5,59.954842011145466,
Celebs/21_Daniel_Radcliffe_0012.jpg,target,0,0,0,0,0,77,77,8,,,,,,,,,,,,,159.16680410000845,159.16680410000845,159.66729360001045,,,,,,11,004,21,Male,2023-05-02_17h27.51.461,face_recognition_ERP_protocol,2022.2.5,59.954842011145466,
Celebs/14_Emma_Watson_0005.jpg,non_target,0,0,0,0,0,78,78,26,,,,,,,,,,,,,160.1680085999833,160.1680085999833,160.66845940001076,,,,,,11,004,21,Male,2023-05-02_17h27.51.461,face_recognition_ERP_protocol,2022.2.5,59.954842011145466,
Celebs/17_Margot_Robbie_0012.jpg,non_target,0,0,0,0,0,79,79,67,,,,,,,,,,,,,161.16924190000282,161.16924190000282,161.66956790001132,,,,,,11,004,21,Male,2023-05-02_17h27.51.461,face_recognition_ERP_protocol,2022.2.5,59.954842011145466,
Celebs/36_Jim_Parsons_0011.jpg,non_target,0,0,0,0,0,80,80,86,,,,,,,,,,,,,162.17023719998542,162.17023719998542,162.67075260001002,,,,,,11,004,21,Male,2023-05-02_17h27.51.461,face_recognition_ERP_protocol,2022.2.5,59.954842011145466,
Celebs/17_Emma_Watson_0006.jpg,non_target,0,0,0,0,0,81,81,90,,,,,,,,,,,,,163.1713410000084,163.1713410000084,163.6718547999917,,,,,,11,004,21,Male,2023-05-02_17h27.51.461,face_recognition_ERP_protocol,2022.2.5,59.954842011145466,
Celebs/50_Johnny_Depp_0004.jpg,non_target,0,0,0,0,0,82,82,39,,,,,,,,,,,,,164.1725707000005,164.1725707000005,164.67296999998507,,,,,,11,004,21,Male,2023-05-02_17h27.51.461,face_recognition_ERP_protocol,2022.2.5,59.954842011145466,
Celebs/15_Margot_Robbie_0012.jpg,non_target,0,0,0,0,0,83,83,82,,,,,,,,,,,,,165.17366090000723,165.17366090000723,165.67413790000137,,,,,,11,004,21,Male,2023-05-02_17h27.51.461,face_recognition_ERP_protocol,2022.2.5,59.954842011145466,
Celebs/18_Daniel_Radcliffe_0002.jpg,target,0,0,0,0,0,84,84,119,,,,,,,,,,,,,166.17473510000855,166.17473510000855,166.67523419999634,,,,,,11,004,21,Male,2023-05-02_17h27.51.461,face_recognition_ERP_protocol,2022.2.5,59.954842011145466,
Celebs/20_Emma_Watson_0007.jpg,non_target,0,0,0,0,0,85,85,96,,,,,,,,,,,,,167.17595179998898,167.17595179998898,167.6763823000074,,,,,,11,004,21,Male,2023-05-02_17h27.51.461,face_recognition_ERP_protocol,2022.2.5,59.954842011145466,
Celebs/23_Daniel_Radcliffe_0010.jpg,target,0,0,0,0,0,86,86,15,,,,,,,,,,,,,168.1771085000073,168.1771085000073,168.6774943000055,,,,,,11,004,21,Male,2023-05-02_17h27.51.461,face_recognition_ERP_protocol,2022.2.5,59.954842011145466,
Celebs/14_Emma_Watson_0004.jpg,non_target,0,0,0,0,0,87,87,14,,,,,,,,,,,,,169.17814559998806,169.17814559998806,169.67860389998532,,,,,,11,004,21,Male,2023-05-02_17h27.51.461,face_recognition_ERP_protocol,2022.2.5,59.954842011145466,
Celebs/15_Margot_Robbie_0005.jpg,non_target,0,0,0,0,0,88,88,80,,,,,,,,,,,,,170.17925779998768,170.17925779998768,170.6797840000072,,,,,,11,004,21,Male,2023-05-02_17h27.51.461,face_recognition_ERP_protocol,2022.2.5,59.954842011145466,
Celebs/50_Johnny_Depp_0018.jpg,non_target,0,0,0,0,0,89,89,24,,,,,,,,,,,,,171.1803715999995,171.1803715999995,171.66423339999164,,,,,,11,004,21,Male,2023-05-02_17h27.51.461,face_recognition_ERP_protocol,2022.2.5,59.954842011145466,
Celebs/22_Emma_Stone_0013.jpg,non_target,0,0,0,0,0,90,90,1,,,,,,,,,,,,,172.164866600011,172.164866600011,172.6652805999911,,,,,,11,004,21,Male,2023-05-02_17h27.51.461,face_recognition_ERP_protocol,2022.2.5,59.954842011145466,
Celebs/26_Scarlett_Johansson_0003.jpg,non_target,0,0,0,0,0,91,91,105,,,,,,,,,,,,,173.16599219999625,173.16599219999625,173.6665051000018,,,,,,11,004,21,Male,2023-05-02_17h27.51.461,face_recognition_ERP_protocol,2022.2.5,59.954842011145466,
Celebs/24_Scarlett_Johansson_0011.jpg,non_target,0,0,0,0,0,92,92,100,,,,,,,,,,,,,174.16712279999047,174.16712279999047,174.66763350000838,,,,,,11,004,21,Male,2023-05-02_17h27.51.461,face_recognition_ERP_protocol,2022.2.5,59.954842011145466,
Celebs/22_Emma_Watson_0001.jpg,non_target,0,0,0,0,0,93,93,58,,,,,,,,,,,,,175.16830240000854,175.16830240000854,175.66875149999396,,,,,,11,004,21,Male,2023-05-02_17h27.51.461,face_recognition_ERP_protocol,2022.2.5,59.954842011145466,
Celebs/18_Emma_Watson_0004.jpg,non_target,0,0,0,0,0,94,94,75,,,,,,,,,,,,,176.16935740000918,176.16935740000918,176.6698444999929,,,,,,11,004,21,Male,2023-05-02_17h27.51.461,face_recognition_ERP_protocol,2022.2.5,59.954842011145466,
Celebs/21_Daniel_Radcliffe_0002.jpg,target,0,0,0,0,0,95,95,60,,,,,,,,,,,,,177.17050559999188,177.17050559999188,177.67115360000753,,,,,,11,004,21,Male,2023-05-02_17h27.51.461,face_recognition_ERP_protocol,2022.2.5,59.954842011145466,
Celebs/57_Jackie_Chan_0010.jpg,non_target,0,0,0,0,0,96,96,62,,,,,,,,,,,,,178.1715852000052,178.1715852000052,178.67227919999277,,,,,,11,004,21,Male,2023-05-02_17h27.51.461,face_recognition_ERP_protocol,2022.2.5,59.954842011145466,
Celebs/32_Jim_Parsons_0010.jpg,non_target,0,0,0,0,0,97,97,98,,,,,,,,,,,,,179.17271939999773,179.17271939999773,179.67340229998808,,,,,,11,004,21,Male,2023-05-02_17h27.51.461,face_recognition_ERP_protocol,2022.2.5,59.954842011145466,
Celebs/19_Margot_Robbie_0004.jpg,non_target,0,0,0,0,0,98,98,42,,,,,,,,,,,,,180.17389040000853,180.17389040000853,180.67438829998719,,,,,,11,004,21,Male,2023-05-02_17h27.51.461,face_recognition_ERP_protocol,2022.2.5,59.954842011145466,
Celebs/36_Neil_Patrick_Harris_0010.jpg,non_target,0,0,0,0,0,99,99,79,,,,,,,,,,,,,181.17501579999225,181.17501579999225,181.67561790000764,,,,,,11,004,21,Male,2023-05-02_17h27.51.461,face_recognition_ERP_protocol,2022.2.5,59.954842011145466,
Celebs/37_Neil_Patrick_Harris_0014.jpg,non_target,0,0,0,0,0,100,100,37,,,,,,,,,,,,,182.1761758000066,182.1761758000066,182.67667509999592,,,,,,11,004,21,Male,2023-05-02_17h27.51.461,face_recognition_ERP_protocol,2022.2.5,59.954842011145466,
Celebs/18_Daniel_Radcliffe_0007.jpg,target,0,0,0,0,0,101,101,81,,,,,,,,,,,,,183.17735459998948,183.17735459998948,183.67778749999707,,,,,,11,004,21,Male,2023-05-02_17h27.51.461,face_recognition_ERP_protocol,2022.2.5,59.954842011145466,
Celebs/17_Margot_Robbie_0014.jpg,non_target,0,0,0,0,0,102,102,114,,,,,,,,,,,,,184.178579600004,184.178579600004,184.67889690000447,,,,,,11,004,21,Male,2023-05-02_17h27.51.461,face_recognition_ERP_protocol,2022.2.5,59.954842011145466,
Celebs/14_Emma_Watson_0008.jpg,non_target,0,0,0,0,0,103,103,36,,,,,,,,,,,,,185.17954549999558,185.17954549999558,185.6802202000108,,,,,,11,004,21,Male,2023-05-02_17h27.51.461,face_recognition_ERP_protocol,2022.2.5,59.954842011145466,
Celebs/22_Margot_Robbie_0010.jpg,non_target,0,0,0,0,0,104,104,18,,,,,,,,,,,,,186.16400980000617,186.16400980000617,186.66450240000268,,,,,,11,004,21,Male,2023-05-02_17h27.51.461,face_recognition_ERP_protocol,2022.2.5,59.954842011145466,
Celebs/16_Emma_Stone_0014.jpg,non_target,0,0,0,0,0,105,105,40,,,,,,,,,,,,,187.16512499999953,187.16512499999953,187.66561830000137,,,,,,11,004,21,Male,2023-05-02_17h27.51.461,face_recognition_ERP_protocol,2022.2.5,59.954842011145466,
Celebs/45_Will_Smith_0010.jpg,non_target,0,0,0,0,0,106,106,69,,,,,,,,,,,,,188.1662476999918,188.1662476999918,188.66675569998915,,,,,,11,004,21,Male,2023-05-02_17h27.51.461,face_recognition_ERP_protocol,2022.2.5,59.954842011145466,
Celebs/54_Jackie_Chan_0014.jpg,non_target,0,0,0,0,0,107,107,111,,,,,,,,,,,,,189.1673540000047,189.1673540000047,189.66790729999775,,,,,,11,004,21,Male,2023-05-02_17h27.51.461,face_recognition_ERP_protocol,2022.2.5,59.954842011145466,
Celebs/23_Daniel_Radcliffe_0002.jpg,target,0,0,0,0,0,108,108,77,,,,,,,,,,,,,190.16850259999046,190.16850259999046,190.6690235999995,,,,,,11,004,21,Male,2023-05-02_17h27.51.461,face_recognition_ERP_protocol,2022.2.5,59.954842011145466,
Celebs/17_Daniel_Radcliffe_0007.jpg,target,0,0,0,0,0,109,109,19,,,,,,,,,,,,,191.1696118999971,191.1696118999971,191.67016439998406,,,,,,11,004,21,Male,2023-05-02_17h27.51.461,face_recognition_ERP_protocol,2022.2.5,59.954842011145466,
Celebs/24_Daniel_Radcliffe_0017.jpg,target,0,0,0,0,0,110,110,71,,,,,,,,,,,,,192.17077789999894,192.17077789999894,192.67132920000586,,,,,,11,004,21,Male,2023-05-02_17h27.51.461,face_recognition_ERP_protocol,2022.2.5,59.954842011145466,
Celebs/43_Will_Smith_0010.jpg,non_target,0,0,0,0,0,111,111,22,,,,,,,,,,,,,193.17196000000695,193.17196000000695,193.67255349998595,,,,,,11,004,21,Male,2023-05-02_17h27.51.461,face_recognition_ERP_protocol,2022.2.5,59.954842011145466,
Celebs/54_Jackie_Chan_0001.jpg,non_target,0,0,0,0,0,112,112,7,,,,,,,,,,,,,194.17315819999203,194.17315819999203,194.67364480000106,,,,,,11,004,21,Male,2023-05-02_17h27.51.461,face_recognition_ERP_protocol,2022.2.5,59.954842011145466,
Celebs/21_Scarlett_Johansson_0007.jpg,non_target,0,0,0,0,0,113,113,118,,,,,,,,,,,,,195.17427449999377,195.17427449999377,195.6746894000098,,,,,,11,004,21,Male,2023-05-02_17h27.51.461,face_recognition_ERP_protocol,2022.2.5,59.954842011145466,
Celebs/23_Daniel_Radcliffe_0019.jpg,target,0,0,0,0,0,114,114,6,,,,,,,,,,,,,196.17536279998603,196.17536279998603,196.67596399999456,,,,,,11,004,21,Male,2023-05-02_17h27.51.461,face_recognition_ERP_protocol,2022.2.5,59.954842011145466,
Celebs/55_Jackie_Chan_0008.jpg,non_target,0,0,0,0,0,115,115,92,,,,,,,,,,,,,197.1764617000008,197.1764617000008,197.6769365000073,,,,,,11,004,21,Male,2023-05-02_17h27.51.461,face_recognition_ERP_protocol,2022.2.5,59.954842011145466,
Celebs/16_Emma_Stone_0010.jpg,non_target,0,0,0,0,0,116,116,95,,,,,,,,,,,,,198.1777322999842,198.1777322999842,198.67816370000946,,,,,,11,004,21,Male,2023-05-02_17h27.51.461,face_recognition_ERP_protocol,2022.2.5,59.954842011145466,
Celebs/55_Jackie_Chan_0015.jpg,non_target,0,0,0,0,0,117,117,30,,,,,,,,,,,,,199.17880510000396,199.17880510000396,199.6792499999865,,,,,,11,004,21,Male,2023-05-02_17h27.51.461,face_recognition_ERP_protocol,2022.2.5,59.954842011145466,
Celebs/33_Neil_Patrick_Harris_0011.jpg,non_target,0,0,0,0,0,118,118,112,,,,,,,,,,,,,200.17991889998666,200.17991889998666,200.68044500000542,,,,,,11,004,21,Male,2023-05-02_17h27.51.461,face_recognition_ERP_protocol,2022.2.5,59.954842011145466,
Celebs/34_Neil_Patrick_Harris_0004.jpg,non_target,0,0,0,0,0,119,119,104,,,,,,,,,,,,,201.16437199999928,201.16437199999928,201.664970599988,,,,,,11,004,21,Male,2023-05-02_17h27.51.461,face_recognition_ERP_protocol,2022.2.5,59.954842011145466,
Celebs/14_Emma_Watson_0005.jpg,non_target,1,0,1,0,0,0,0,26,,,,,,,,,,,,,207.35245350000332,207.35245350000332,207.8384478999942,202.1820400999859,202.1820400999859,space,5.121441299997969,,11,004,21,Male,2023-05-02_17h27.51.461,face_recognition_ERP_protocol,2022.2.5,59.954842011145466,
Celebs/14_Emma_Watson_0013.jpg,non_target,1,0,1,0,0,1,1,20,,,,,,,,,,,,,208.33920359998592,208.33920359998592,208.83959419999155,,,,,,11,004,21,Male,2023-05-02_17h27.51.461,face_recognition_ERP_protocol,2022.2.5,59.954842011145466,
Celebs/45_Will_Smith_0010.jpg,non_target,1,0,1,0,0,2,2,69,,,,,,,,,,,,,209.323582299985,209.323582299985,209.8240397000045,,,,,,11,004,21,Male,2023-05-02_17h27.51.461,face_recognition_ERP_protocol,2022.2.5,59.954842011145466,
Celebs/38_Jim_Parsons_0003.jpg,non_target,1,0,1,0,0,3,3,53,,,,,,,,,,,,,210.32491850000224,210.32491850000224,210.82523159999982,,,,,,11,004,21,Male,2023-05-02_17h27.51.461,face_recognition_ERP_protocol,2022.2.5,59.954842011145466,
Celebs/16_Emma_Stone_0012.jpg,non_target,1,0,1,0,0,4,4,70,,,,,,,,,,,,,211.3259984999895,211.3259984999895,211.82630789998802,,,,,,11,004,21,Male,2023-05-02_17h27.51.461,face_recognition_ERP_protocol,2022.2.5,59.954842011145466,
Celebs/20_Emma_Stone_0005.jpg,non_target,1,0,1,0,0,5,5,63,,,,,,,,,,,,,212.32696939999005,212.32696939999005,212.82742270000745,,,,,,11,004,21,Male,2023-05-02_17h27.51.461,face_recognition_ERP_protocol,2022.2.5,59.954842011145466,
Celebs/14_Emma_Watson_0008.jpg,non_target,1,0,1,0,0,6,6,36,,,,,,,,,,,,,213.32809409999754,213.32809409999754,213.8286015999911,,,,,,11,004,21,Male,2023-05-02_17h27.51.461,face_recognition_ERP_protocol,2022.2.5,59.954842011145466,
Celebs/25_Scarlett_Johansson_0010.jpg,non_target,1,0,1,0,0,7,7,32,,,,,,,,,,,,,214.32919709998532,214.32919709998532,214.82969310000772,,,,,,11,004,21,Male,2023-05-02_17h27.51.461,face_recognition_ERP_protocol,2022.2.5,59.954842011145466,
Celebs/24_Daniel_Radcliffe_0017.jpg,target,1,0,1,0,0,8,8,71,,,,,,,,,,,,,215.33042829998885,215.33042829998885,215.83091779999086,,,,,,11,004,21,Male,2023-05-02_17h27.51.461,face_recognition_ERP_protocol,2022.2.5,59.954842011145466,
Celebs/15_Margot_Robbie_0012.jpg,non_target,1,0,1,0,0,9,9,82,,,,,,,,,,,,,216.3314209000091,216.3314209000091,216.83213520000572,,,,,,11,004,21,Male,2023-05-02_17h27.51.461,face_recognition_ERP_protocol,2022.2.5,59.954842011145466,
Celebs/21_Daniel_Radcliffe_0009.jpg,target,1,0,1,0,0,10,10,83,,,,,,,,,,,,,217.33359749999363,217.33359749999363,217.83304120000685,,,,,,11,004,21,Male,2023-05-02_17h27.51.461,face_recognition_ERP_protocol,2022.2.5,59.954842011145466,
Celebs/32_Jim_Parsons_0010.jpg,non_target,1,0,1,0,0,11,11,98,,,,,,,,,,,,,218.33376899998984,218.33376899998984,218.83503909999854,,,,,,11,004,21,Male,2023-05-02_17h27.51.461,face_recognition_ERP_protocol,2022.2.5,59.954842011145466,
Celebs/40_Will_Smith_0012.jpg,non_target,1,0,1,0,0,12,12,110,,,,,,,,,,,,,219.33534650001093,219.33534650001093,219.83572159998585,,,,,,11,004,21,Male,2023-05-02_17h27.51.461,face_recognition_ERP_protocol,2022.2.5,59.954842011145466,
Celebs/40_Jim_Parsons_0004.jpg,non_target,1,0,1,0,0,13,13,73,,,,,,,,,,,,,220.3360141000012,220.3360141000012,220.83645450000768,,,,,,11,004,21,Male,2023-05-02_17h27.51.461,face_recognition_ERP_protocol,2022.2.5,59.954842011145466,
Celebs/24_Emma_Stone_0015.jpg,non_target,1,0,1,0,0,14,14,57,,,,,,,,,,,,,221.33793449998484,221.33793449998484,221.8375560999848,,,,,,11,004,21,Male,2023-05-02_17h27.51.461,face_recognition_ERP_protocol,2022.2.5,59.954842011145466,
Celebs/19_Margot_Robbie_0001.jpg,non_target,1,0,1,0,0,15,15,51,,,,,,,,,,,,,222.3382183999929,222.3382183999929,222.838694200007,,,,,,11,004,21,Male,2023-05-02_17h27.51.461,face_recognition_ERP_protocol,2022.2.5,59.954842011145466,
Celebs/48_Johnny_Depp_0001.jpg,non_target,1,0,1,0,0,16,16,106,,,,,,,,,,,,,223.3393849999993,223.3393849999993,223.82318169999053,,,,,,11,004,21,Male,2023-05-02_17h27.51.461,face_recognition_ERP_protocol,2022.2.5,59.954842011145466,
Celebs/23_Daniel_Radcliffe_0019.jpg,target,1,0,1,0,0,17,17,6,,,,,,,,,,,,,224.32379930000752,224.32379930000752,224.82428840000648,,,,,,11,004,21,Male,2023-05-02_17h27.51.461,face_recognition_ERP_protocol,2022.2.5,59.954842011145466,
Celebs/50_Johnny_Depp_0010.jpg,non_target,1,0,1,0,0,18,18,115,,,,,,,,,,,,,225.32497330001206,225.32497330001206,225.8254978999903,,,,,,11,004,21,Male,2023-05-02_17h27.51.461,face_recognition_ERP_protocol,2022.2.5,59.954842011145466,
Celebs/52_Jackie_Chan_0002.jpg,non_target,1,0,1,0,0,19,19,68,,,,,,,,,,,,,226.32607079998706,226.32607079998706,226.8265143999888,,,,,,11,004,21,Male,2023-05-02_17h27.51.461,face_recognition_ERP_protocol,2022.2.5,59.954842011145466,
Celebs/34_Neil_Patrick_Harris_0004.jpg,non_target,1,0,1,0,0,20,20,104,,,,,,,,,,,,,227.32715900000767,227.32715900000767,227.8276455999876,,,,,,11,004,21,Male,2023-05-02_17h27.51.461,face_recognition_ERP_protocol,2022.2.5,59.954842011145466,
Celebs/18_Emma_Watson_0004.jpg,non_target,1,0,1,0,0,21,21,75,,,,,,,,,,,,,228.3287682000082,228.3287682000082,228.8293177000014,,,,,,11,004,21,Male,2023-05-02_17h27.51.461,face_recognition_ERP_protocol,2022.2.5,59.954842011145466,
Celebs/36_Neil_Patrick_Harris_0010.jpg,non_target,1,0,1,0,0,22,22,79,,,,,,,,,,,,,229.32944490000955,229.32944490000955,229.82999979998567,,,,,,11,004,21,Male,2023-05-02_17h27.51.461,face_recognition_ERP_protocol,2022.2.5,59.954842011145466,
Celebs/18_Daniel_Radcliffe_0008.jpg,target,1,0,1,0,0,23,23,28,,,,,,,,,,,,,230.3305909000046,230.3305909000046,230.83108780000475,,,,,,11,004,21,Male,2023-05-02_17h27.51.461,face_recognition_ERP_protocol,2022.2.5,59.954842011145466,
Celebs/55_Jackie_Chan_0008.jpg,non_target,1,0,1,0,0,24,24,92,,,,,,,,,,,,,231.3317192000104,231.3317192000104,231.832221699995,,,,,,11,004,21,Male,2023-05-02_17h27.51.461,face_recognition_ERP_protocol,2022.2.5,59.954842011145466,
Celebs/22_Scarlett_Johansson_0005.jpg,non_target,1,0,1,0,0,25,25,44,,,,,,,,,,,,,232.33293830000912,232.33293830000912,232.8333649999986,,,,,,11,004,21,Male,2023-05-02_17h27.51.461,face_recognition_ERP_protocol,2022.2.5,59.954842011145466,
Celebs/55_Jackie_Chan_0003.jpg,non_target,1,0,1,0,0,26,26,29,,,,,,,,,,,,,233.33406960000866,233.33406960000866,233.83455040000263,,,,,,11,004,21,Male,2023-05-02_17h27.51.461,face_recognition_ERP_protocol,2022.2.5,59.954842011145466,
Celebs/16_Margot_Robbie_0009.jpg,non_target,1,0,1,0,0,27,27,107,,,,,,,,,,,,,234.3351638999884,234.3351638999884,234.83565449999878,,,,,,11,004,21,Male,2023-05-02_17h27.51.461,face_recognition_ERP_protocol,2022.2.5,59.954842011145466,
Celebs/17_Emma_Watson_0006.jpg,non_target,1,0,1,0,0,28,28,90,,,,,,,,,,,,,235.33630989998346,235.33630989998346,235.8368106999842,,,,,,11,004,21,Male,2023-05-02_17h27.51.461,face_recognition_ERP_protocol,2022.2.5,59.954842011145466,
Celebs/36_Jim_Parsons_0011.jpg,non_target,1,0,1,0,0,29,29,86,,,,,,,,,,,,,236.33743899999536,236.33743899999536,236.8379552999977,,,,,,11,004,21,Male,2023-05-02_17h27.51.461,face_recognition_ERP_protocol,2022.2.5,59.954842011145466,
Celebs/54_Jackie_Chan_0001.jpg,non_target,1,0,1,0,0,30,30,7,,,,,,,,,,,,,237.33869020000566,237.33869020000566,237.83904240000993,,,,,,11,004,21,Male,2023-05-02_17h27.51.461,face_recognition_ERP_protocol,2022.2.5,59.954842011145466,
Celebs/39_Neil_Patrick_Harris_0010.jpg,non_target,1,0,1,0,0,31,31,94,,,,,,,,,,,,,238.3398431999958,238.3398431999958,238.82348540000385,,,,,,11,004,21,Male,2023-05-02_17h27.51.461,face_recognition_ERP_protocol,2022.2.5,59.954842011145466,
Celebs/38_Will_Smith_0013.jpg,non_target,1,0,1,0,0,32,32,13,,,,,,,,,,,,,239.3241408999893,239.3241408999893,239.82461869998951,,,,,,11,004,21,Male,2023-05-02_17h27.51.461,face_recognition_ERP_protocol,2022.2.5,59.954842011145466,
Celebs/21_Margot_Robbie_0003.jpg,non_target,1,0,1,0,0,33,33,27,,,,,,,,,,,,,240.32533510000212,240.32533510000212,240.82578419998754,,,,,,11,004,21,Male,2023-05-02_17h27.51.461,face_recognition_ERP_protocol,2022.2.5,59.954842011145466,
Celebs/37_Will_Smith_0015.jpg,non_target,1,0,1,0,0,34,34,113,,,,,,,,,,,,,241.32639529998414,241.32639529998414,241.8275474999973,,,,,,11,004,21,Male,2023-05-02_17h27.51.461,face_recognition_ERP_protocol,2022.2.5,59.954842011145466,
Celebs/35_Neil_Patrick_Harris_0009.jpg,non_target,1,0,1,0,0,35,35,87,,,,,,,,,,,,,242.32824899998377,242.32824899998377,242.82797109999228,,,,,,11,004,21,Male,2023-05-02_17h27.51.461,face_recognition_ERP_protocol,2022.2.5,59.954842011145466,
Celebs/21_Emma_Stone_0002.jpg,non_target,1,0,1,0,0,36,36,103,,,,,,,,,,,,,243.32866319999448,243.32866319999448,243.8290846000018,,,,,,11,004,21,Male,2023-05-02_17h27.51.461,face_recognition_ERP_protocol,2022.2.5,59.954842011145466,
Celebs/45_Will_Smith_0014.jpg,non_target,1,0,1,0,0,37,37,59,,,,,,,,,,,,,244.32972539999173,244.32972539999173,244.8302457999962,,,,,,11,004,21,Male,2023-05-02_17h27.51.461,face_recognition_ERP_protocol,2022.2.5,59.954842011145466,
Celebs/34_Neil_Patrick_Harris_0007.jpg,non_target,1,0,1,0,0,38,38,117,,,,,,,,,,,,,245.33092149998993,245.33092149998993,245.83135839999886,,,,,,11,004,21,Male,2023-05-02_17h27.51.461,face_recognition_ERP_protocol,2022.2.5,59.954842011145466,
Celebs/39_Jim_Parsons_0008.jpg,non_target,1,0,1,0,0,39,39,89,,,,,,,,,,,,,246.33198970000376,246.33198970000376,246.83257969998522,,,,,,11,004,21,Male,2023-05-02_17h27.51.461,face_recognition_ERP_protocol,2022.2.5,59.954842011145466,
Celebs/44_Will_Smith_0015.jpg,non_target,1,0,1,0,0,40,40,101,,,,,,,,,,,,,247.33307580000837,247.33307580000837,247.8336081999878,,,,,,11,004,21,Male,2023-05-02_17h27.51.461,face_recognition_ERP_protocol,2022.2.5,59.954842011145466,
Celebs/38_Neil_Patrick_Harris_0006.jpg,non_target,1,0,1,0,0,41,41,31,,,,,,,,,,,,,248.33427859999938,248.33427859999938,248.83472650000476,,,,,,11,004,21,Male,2023-05-02_17h27.51.461,face_recognition_ERP_protocol,2022.2.5,59.954842011145466,
Celebs/20_Margot_Robbie_0006.jpg,non_target,1,0,1,0,0,42,42,35,,,,,,,,,,,,,249.33541010000044,249.33541010000044,249.83590040000854,,,,,,11,004,21,Male,2023-05-02_17h27.51.461,face_recognition_ERP_protocol,2022.2.5,59.954842011145466,
Celebs/14_Emma_Watson_0015.jpg,non_target,1,0,1,0,0,43,43,56,,,,,,,,,,,,,250.336601899995,250.336601899995,250.83701799999108,,,,,,11,004,21,Male,2023-05-02_17h27.51.461,face_recognition_ERP_protocol,2022.2.5,59.954842011145466,
Celebs/36_Neil_Patrick_Harris_0007.jpg,non_target,1,0,1,0,0,44,44,5,,,,,,,,,,,,,251.33770790000563,251.33770790000563,251.83816399998614,,,,,,11,004,21,Male,2023-05-02_17h27.51.461,face_recognition_ERP_protocol,2022.2.5,59.954842011145466,
Celebs/22_Emma_Watson_0001.jpg,non_target,1,0,1,0,0,45,45,58,,,,,,,,,,,,,252.33882860001177,252.33882860001177,252.83927180001047,,,,,,11,004,21,Male,2023-05-02_17h27.51.461,face_recognition_ERP_protocol,2022.2.5,59.954842011145466,
Celebs/21_Daniel_Radcliffe_0008.jpg,target,1,0,1,0,0,46,46,16,,,,,,,,,,,,,253.32326050000847,253.32326050000847,253.82372929999838,,,,,,11,004,21,Male,2023-05-02_17h27.51.461,face_recognition_ERP_protocol,2022.2.5,59.954842011145466,
Celebs/47_Johnny_Depp_0004.jpg,non_target,1,0,1,0,0,47,47,76,,,,,,,,,,,,,254.32440929999575,254.32440929999575,254.82492710000952,,,,,,11,004,21,Male,2023-05-02_17h27.51.461,face_recognition_ERP_protocol,2022.2.5,59.954842011145466,
Celebs/39_Neil_Patrick_Harris_0001.jpg,non_target,1,0,1,0,0,48,48,4,,,,,,,,,,,,,255.3255405999953,255.3255405999953,255.82598409999628,,,,,,11,004,21,Male,2023-05-02_17h27.51.461,face_recognition_ERP_protocol,2022.2.5,59.954842011145466,
Celebs/21_Emma_Watson_0004.jpg,non_target,1,0,1,0,0,49,49,21,,,,,,,,,,,,,256.3267014999874,256.3267014999874,256.82713419999345,,,,,,11,004,21,Male,2023-05-02_17h27.51.461,face_recognition_ERP_protocol,2022.2.5,59.954842011145466,
Celebs/43_Will_Smith_0010.jpg,non_target,1,0,1,0,0,50,50,22,,,,,,,,,,,,,257.3277378999919,257.3277378999919,257.8282595000055,,,,,,11,004,21,Male,2023-05-02_17h27.51.461,face_recognition_ERP_protocol,2022.2.5,59.954842011145466,
Celebs/50_Johnny_Depp_0018.jpg,non_target,1,0,1,0,0,51,51,24,,,,,,,,,,,,,258.3288547999982,258.3288547999982,258.82938099998864,,,,,,11,004,21,Male,2023-05-02_17h27.51.461,face_recognition_ERP_protocol,2022.2.5,59.954842011145466,
Celebs/39_Jim_Parsons_0001.jpg,non_target,1,0,1,0,0,52,52,49,,,,,,,,,,,,,259.33007379999617,259.33007379999617,259.83057550000376,,,,,,11,004,21,Male,2023-05-02_17h27.51.461,face_recognition_ERP_protocol,2022.2.5,59.954842011145466,
Celebs/42_Will_Smith_0012.jpg,non_target,1,0,1,0,0,53,53,64,,,,,,,,,,,,,260.3311826999998,260.3311826999998,260.8318341000122,,,,,,11,004,21,Male,2023-05-02_17h27.51.461,face_recognition_ERP_protocol,2022.2.5,59.954842011145466,
Celebs/32_Jim_Parsons_0016.jpg,non_target,1,0,1,0,0,54,54,102,,,,,,,,,,,,,261.3322960000078,261.3322960000078,261.8328035000013,,,,,,11,004,21,Male,2023-05-02_17h27.51.461,face_recognition_ERP_protocol,2022.2.5,59.954842011145466,
Celebs/18_Daniel_Radcliffe_0007.jpg,target,1,0,1,0,0,55,55,81,,,,,,,,,,,,,262.333387199993,262.333387199993,262.83401759999106,,,,,,11,004,21,Male,2023-05-02_17h27.51.461,face_recognition_ERP_protocol,2022.2.5,59.954842011145466,
Celebs/50_Jackie_Chan_0014.jpg,non_target,1,0,1,0,0,56,56,38,,,,,,,,,,,,,263.3345561999886,263.3345561999886,263.8350980000105,,,,,,11,004,21,Male,2023-05-02_17h27.51.461,face_recognition_ERP_protocol,2022.2.5,59.954842011145466,
Celebs/22_Emma_Stone_0013.jpg,non_target,1,0,1,0,0,57,57,1,,,,,,,,,,,,,264.3357781000086,264.3357781000086,264.83627239998896,,,,,,11,004,21,Male,2023-05-02_17h27.51.461,face_recognition_ERP_protocol,2022.2.5,59.954842011145466,
Celebs/32_Jim_Parsons_0018.jpg,non_target,1,0,1,0,0,58,58,46,,,,,,,,,,,,,265.3368594000058,265.3368594000058,265.83729309999035,,,,,,11,004,21,Male,2023-05-02_17h27.51.461,face_recognition_ERP_protocol,2022.2.5,59.954842011145466,
Celebs/23_Emma_Stone_0014.jpg,non_target,1,0,1,0,0,59,59,12,,,,,,,,,,,,,266.3380221000116,266.3380221000116,266.83849279998685,,,,,,11,004,21,Male,2023-05-02_17h27.51.461,face_recognition_ERP_protocol,2022.2.5,59.954842011145466,
Celebs/22_Emma_Watson_0003.jpg,non_target,1,0,1,0,0,60,60,91,,,,,,,,,,,,,267.3391411000048,267.3391411000048,267.8229038999998,,,,,,11,004,21,Male,2023-05-02_17h27.51.461,face_recognition_ERP_protocol,2022.2.5,59.954842011145466,
Celebs/33_Jim_Parsons_0011.jpg,non_target,1,0,1,0,0,61,61,34,,,,,,,,,,,,,268.3236259999976,268.3236259999976,268.82402379999985,,,,,,11,004,21,Male,2023-05-02_17h27.51.461,face_recognition_ERP_protocol,2022.2.5,59.954842011145466,
Celebs/15_Margot_Robbie_0005.jpg,non_target,1,0,1,0,0,62,62,80,,,,,,,,,,,,,269.3247124000045,269.3247124000045,269.8251625999983,,,,,,11,004,21,Male,2023-05-02_17h27.51.461,face_recognition_ERP_protocol,2022.2.5,59.954842011145466,
Celebs/18_Daniel_Radcliffe_0002.jpg,target,1,0,1,0,0,63,63,119,,,,,,,,,,,,,270.3259398000082,270.3259398000082,270.82644489998347,,,,,,11,004,21,Male,2023-05-02_17h27.51.461,face_recognition_ERP_protocol,2022.2.5,59.954842011145466,
Celebs/28_Scarlett_Johansson_0005.jpg,non_target,1,0,1,0,0,64,64,50,,,,,,,,,,,,,271.32701079998515,271.32701079998515,271.82752459999756,,,,,,11,004,21,Male,2023-05-02_17h27.51.461,face_recognition_ERP_protocol,2022.2.5,59.954842011145466,
Celebs/20_Emma_Watson_0007.jpg,non_target,1,0,1,0,0,65,65,96,,,,,,,,,,,,,272.32803770000464,272.32803770000464,272.828551899991,,,,,,11,004,21,Male,2023-05-02_17h27.51.461,face_recognition_ERP_protocol,2022.2.5,59.954842011145466,
Celebs/24_Scarlett_Johansson_0001.jpg,non_target,1,0,1,0,0,66,66,10,,,,,,,,,,,,,273.32912770000985,273.32912770000985,273.8297128000122,,,,,,11,004,21,Male,2023-05-02_17h27.51.461,face_recognition_ERP_protocol,2022.2.5,59.954842011145466,
Celebs/22_Margot_Robbie_0010.jpg,non_target,1,0,1,0,0,67,67,18,,,,,,,,,,,,,274.3302887000027,274.3302887000027,274.8308085000026,,,,,,11,004,21,Male,2023-05-02_17h27.51.461,face_recognition_ERP_protocol,2022.2.5,59.954842011145466,
Celebs/43_Will_Smith_0006.jpg,non_target,1,0,1,0,0,68,68,61,,,,,,,,,,,,,275.331428400008,275.331428400008,275.8319496999902,,,,,,11,004,21,Male,2023-05-02_17h27.51.461,face_recognition_ERP_protocol,2022.2.5,59.954842011145466,
Celebs/50_Jackie_Chan_0012.jpg,non_target,1,0,1,0,0,69,69,43,,,,,,,,,,,,,276.3325557000062,276.3325557000062,276.83306889998494,,,,,,11,004,21,Male,2023-05-02_17h27.51.461,face_recognition_ERP_protocol,2022.2.5,59.954842011145466,
Celebs/20_Scarlett_Johansson_0011.jpg,non_target,1,0,1,0,0,70,70,109,,,,,,,,,,,,,277.3336916999833,277.3336916999833,277.83426010000403,,,,,,11,004,21,Male,2023-05-02_17h27.51.461,face_recognition_ERP_protocol,2022.2.5,59.954842011145466,
Celebs/29_Scarlett_Johansson_0016.jpg,non_target,1,0,1,0,0,71,71,2,,,,,,,,,,,,,278.3348038000113,278.3348038000113,278.8353732000105,,,,,,11,004,21,Male,2023-05-02_17h27.51.461,face_recognition_ERP_protocol,2022.2.5,59.954842011145466,
Celebs/16_Emma_Stone_0010.jpg,non_target,1,0,1,0,0,72,72,95,,,,,,,,,,,,,279.3359601999982,279.3359601999982,279.8364505000063,,,,,,11,004,21,Male,2023-05-02_17h27.51.461,face_recognition_ERP_protocol,2022.2.5,59.954842011145466,
Celebs/17_Daniel_Radcliffe_0007.jpg,target,1,0,1,0,0,73,73,19,,,,,,,,,,,,,280.33708769999794,280.33708769999794,280.83758799999487,,,,,,11,004,21,Male,2023-05-02_17h27.51.461,face_recognition_ERP_protocol,2022.2.5,59.954842011145466,
Celebs/37_Neil_Patrick_Harris_0010.jpg,non_target,1,0,1,0,0,74,74,93,,,,,,,,,,,,,281.33826359998784,281.33826359998784,281.83876839998993,,,,,,11,004,21,Male,2023-05-02_17h27.51.461,face_recognition_ERP_protocol,2022.2.5,59.954842011145466,
Celebs/50_Johnny_Depp_0004.jpg,non_target,1,0,1,0,0,75,75,39,,,,,,,,,,,,,282.3390006000118,282.3390006000118,282.82352939998964,,,,,,11,004,21,Male,2023-05-02_17h27.51.461,face_recognition_ERP_protocol,2022.2.5,59.954842011145466,
Celebs/20_Margot_Robbie_0004.jpg,non_target,1,0,1,0,0,76,76,116,,,,,,,,,,,,,283.3238466999901,283.3238466999901,283.8247311000014,,,,,,11,004,21,Male,2023-05-02_17h27.51.461,face_recognition_ERP_protocol,2022.2.5,59.954842011145466,
Celebs/21_Daniel_Radcliffe_0012.jpg,target,1,0,1,0,0,77,77,8,,,,,,,,,,,,,284.3249943999981,284.3249943999981,284.8255002000078,,,,,,11,004,21,Male,2023-05-02_17h27.51.461,face_recognition_ERP_protocol,2022.2.5,59.954842011145466,
Celebs/27_Scarlett_Johansson_0012.jpg,non_target,1,0,1,0,0,78,78,78,,,,,,,,,,,,,285.32664569999906,285.32664569999906,285.8266894000117,,,,,,11,004,21,Male,2023-05-02_17h27.51.461,face_recognition_ERP_protocol,2022.2.5,59.954842011145466,
Celebs/58_Jackie_Chan_0005.jpg,non_target,1,0,1,0,0,79,79,3,,,,,,,,,,,,,286.32724929999677,286.32724929999677,286.827913599991,,,,,,11,004,21,Male,2023-05-02_17h27.51.461,face_recognition_ERP_protocol,2022.2.5,59.954842011145466,
Celebs/39_Jim_Parsons_0010.jpg,non_target,1,0,1,0,0,80,80,0,,,,,,,,,,,,,287.3283381999936,287.3283381999936,287.8289785000088,,,,,,11,004,21,Male,2023-05-02_17h27.51.461,face_recognition_ERP_protocol,2022.2.5,59.954842011145466,
Celebs/44_Will_Smith_0007.jpg,non_target,1,0,1,0,0,81,81,65,,,,,,,,,,,,,288.3294687999878,288.3294687999878,288.82994550000876,,,,,,11,004,21,Male,2023-05-02_17h27.51.461,face_recognition_ERP_protocol,2022.2.5,59.954842011145466,
Celebs/55_Jackie_Chan_0015.jpg,non_target,1,0,1,0,0,82,82,30,,,,,,,,,,,,,289.33063010001206,289.33063010001206,289.8311190000095,,,,,,11,004,21,Male,2023-05-02_17h27.51.461,face_recognition_ERP_protocol,2022.2.5,59.954842011145466,
Celebs/39_Jim_Parsons_0004.jpg,non_target,1,0,1,0,0,83,83,88,,,,,,,,,,,,,290.3318245999981,290.3318245999981,290.8322809000092,,,,,,11,004,21,Male,2023-05-02_17h27.51.461,face_recognition_ERP_protocol,2022.2.5,59.954842011145466,
Celebs/26_Scarlett_Johansson_0003.jpg,non_target,1,0,1,0,0,84,84,105,,,,,,,,,,,,,291.3329559999984,291.3329559999984,291.8333675999893,,,,,,11,004,21,Male,2023-05-02_17h27.51.461,face_recognition_ERP_protocol,2022.2.5,59.954842011145466,
Celebs/57_Jackie_Chan_0010.jpg,non_target,1,0,1,0,0,85,85,62,,,,,,,,,,,,,292.33406520000426,292.33406520000426,292.8345255999884,,,,,,11,004,21,Male,2023-05-02_17h27.51.461,face_recognition_ERP_protocol,2022.2.5,59.954842011145466,
Celebs/21_Scarlett_Johansson_0007.jpg,non_target,1,0,1,0,0,86,86,118,,,,,,,,,,,,,293.3352051000111,293.3352051000111,293.8356989999884,,,,,,11,004,21,Male,2023-05-02_17h27.51.461,face_recognition_ERP_protocol,2022.2.5,59.954842011145466,
Celebs/33_Neil_Patrick_Harris_0011.jpg,non_target,1,0,1,0,0,87,87,112,,,,,,,,,,,,,294.33636190000107,294.33636190000107,294.8369279000035,,,,,,11,004,21,Male,2023-05-02_17h27.51.461,face_recognition_ERP_protocol,2022.2.5,59.954842011145466,
Celebs/47_Johnny_Depp_0003.jpg,non_target,1,0,1,0,0,88,88,9,,,,,,,,,,,,,295.33745640001143,295.33745640001143,295.83793839998543,,,,,,11,004,21,Male,2023-05-02_17h27.51.461,face_recognition_ERP_protocol,2022.2.5,59.954842011145466,
Celebs/19_Emma_Stone_0006.jpg,non_target,1,0,1,0,0,89,89,66,,,,,,,,,,,,,296.33857170000556,296.33857170000556,296.8390708999941,,,,,,11,004,21,Male,2023-05-02_17h27.51.461,face_recognition_ERP_protocol,2022.2.5,59.954842011145466,
Celebs/21_Daniel_Radcliffe_0002.jpg,target,1,0,1,0,0,90,90,60,,,,,,,,,,,,,297.33969510000315,297.33969510000315,297.8236154000042,,,,,,11,004,21,Male,2023-05-02_17h27.51.461,face_recognition_ERP_protocol,2022.2.5,59.954842011145466,
Celebs/40_Jim_Parsons_0015.jpg,non_target,1,0,1,0,0,91,91,45,,,,,,,,,,,,,298.3242193000042,298.3242193000042,298.8248275000078,,,,,,11,004,21,Male,2023-05-02_17h27.51.461,face_recognition_ERP_protocol,2022.2.5,59.954842011145466,
Celebs/17_Margot_Robbie_0006.jpg,non_target,1,0,1,0,0,92,92,17,,,,,,,,,,,,,299.3252991999907,299.3252991999907,299.82587840000633,,,,,,11,004,21,Male,2023-05-02_17h27.51.461,face_recognition_ERP_protocol,2022.2.5,59.954842011145466,
Celebs/45_Johnny_Depp_0003.jpg,non_target,1,0,1,0,0,93,93,108,,,,,,,,,,,,,300.3265003999986,300.3265003999986,300.82706619999954,,,,,,11,004,21,Male,2023-05-02_17h27.51.461,face_recognition_ERP_protocol,2022.2.5,59.954842011145466,
Celebs/47_Johnny_Depp_0009.jpg,non_target,1,0,1,0,0,94,94,23,,,,,,,,,,,,,301.3276282000006,301.3276282000006,301.8281350999896,,,,,,11,004,21,Male,2023-05-02_17h27.51.461,face_recognition_ERP_protocol,2022.2.5,59.954842011145466,
Celebs/29_Scarlett_Johansson_0010.jpg,non_target,1,0,1,0,0,95,95,85,,,,,,,,,,,,,302.32873159999144,302.32873159999144,302.82920069998363,,,,,,11,004,21,Male,2023-05-02_17h27.51.461,face_recognition_ERP_protocol,2022.2.5,59.954842011145466,
Celebs/21_Emma_Stone_0003.jpg,non_target,1,0,1,0,0,96,96,25,,,,,,,,,,,,,303.32985680000274,303.32985680000274,303.830275299988,,,,,,11,004,21,Male,2023-05-02_17h27.51.461,face_recognition_ERP_protocol,2022.2.5,59.954842011145466,
Celebs/17_Margot_Robbie_0012.jpg,non_target,1,0,1,0,0,97,97,67,,,,,,,,,,,,,304.330984500004,304.330984500004,304.83135950000724,,,,,,11,004,21,Male,2023-05-02_17h27.51.461,face_recognition_ERP_protocol,2022.2.5,59.954842011145466,
Celebs/44_Will_Smith_0006.jpg,non_target,1,0,1,0,0,98,98,41,,,,,,,,,,,,,305.3320449999883,305.3320449999883,305.8326630000083,,,,,,11,004,21,Male,2023-05-02_17h27.51.461,face_recognition_ERP_protocol,2022.2.5,59.954842011145466,
Celebs/57_Jackie_Chan_0008.jpg,non_target,1,0,1,0,0,99,99,72,,,,,,,,,,,,,306.3332478000084,306.3332478000084,306.8337865000067,,,,,,11,004,21,Male,2023-05-02_17h27.51.461,face_recognition_ERP_protocol,2022.2.5,59.954842011145466,
Celebs/14_Emma_Watson_0004.jpg,non_target,1,0,1,0,0,100,100,14,,,,,,,,,,,,,307.33439380000345,307.33439380000345,307.8349215000053,,,,,,11,004,21,Male,2023-05-02_17h27.51.461,face_recognition_ERP_protocol,2022.2.5,59.954842011145466,
Celebs/23_Daniel_Radcliffe_0010.jpg,target,1,0,1,0,0,101,101,15,,,,,,,,,,,,,308.3355245999992,308.3355245999992,308.83602899999823,,,,,,11,004,21,Male,2023-05-02_17h27.51.461,face_recognition_ERP_protocol,2022.2.5,59.954842011145466,
Celebs/31_Neil_Patrick_Harris_0008.jpg,non_target,1,0,1,0,0,102,102,99,,,,,,,,,,,,,309.3366311999853,309.3366311999853,309.8371770000085,,,,,,11,004,21,Male,2023-05-02_17h27.51.461,face_recognition_ERP_protocol,2022.2.5,59.954842011145466,
Celebs/17_Margot_Robbie_0014.jpg,non_target,1,0,1,0,0,103,103,114,,,,,,,,,,,,,310.33774280000944,310.33774280000944,310.838199299993,,,,,,11,004,21,Male,2023-05-02_17h27.51.461,face_recognition_ERP_protocol,2022.2.5,59.954842011145466,
Celebs/19_Margot_Robbie_0004.jpg,non_target,1,0,1,0,0,104,104,42,,,,,,,,,,,,,311.33890030000475,311.33890030000475,311.8393981999834,,,,,,11,004,21,Male,2023-05-02_17h27.51.461,face_recognition_ERP_protocol,2022.2.5,59.954842011145466,
Celebs/54_Jackie_Chan_0014.jpg,non_target,1,0,1,0,0,105,105,111,,,,,,,,,,,,,312.3233593000041,312.3233593000041,312.82380879999255,,,,,,11,004,21,Male,2023-05-02_17h27.51.461,face_recognition_ERP_protocol,2022.2.5,59.954842011145466,
Celebs/51_Jackie_Chan_0006.jpg,non_target,1,0,1,0,0,106,106,97,,,,,,,,,,,,,313.3245043999923,313.3245043999923,313.82494930000394,,,,,,11,004,21,Male,2023-05-02_17h27.51.461,face_recognition_ERP_protocol,2022.2.5,59.954842011145466,
Celebs/26_Scarlett_Johansson_0008.jpg,non_target,1,0,1,0,0,107,107,47,,,,,,,,,,,,,314.32575980000547,314.32575980000547,314.8260345000017,,,,,,11,004,21,Male,2023-05-02_17h27.51.461,face_recognition_ERP_protocol,2022.2.5,59.954842011145466,
Celebs/50_Johnny_Depp_0008.jpg,non_target,1,0,1,0,0,108,108,84,,,,,,,,,,,,,315.3268875000067,315.3268875000067,315.82719270000234,,,,,,11,004,21,Male,2023-05-02_17h27.51.461,face_recognition_ERP_protocol,2022.2.5,59.954842011145466,
Celebs/16_Emma_Stone_0014.jpg,non_target,1,0,1,0,0,109,109,40,,,,,,,,,,,,,316.32786379999015,316.32786379999015,316.82832329999655,,,,,,11,004,21,Male,2023-05-02_17h27.51.461,face_recognition_ERP_protocol,2022.2.5,59.954842011145466,
Celebs/24_Scarlett_Johansson_0011.jpg,non_target,1,0,1,0,0,110,110,100,,,,,,,,,,,,,317.32896779998555,317.32896779998555,317.82947799999965,,,,,,11,004,21,Male,2023-05-02_17h27.51.461,face_recognition_ERP_protocol,2022.2.5,59.954842011145466,
Celebs/23_Daniel_Radcliffe_0002.jpg,target,1,0,1,0,0,111,111,77,,,,,,,,,,,,,318.33007309999084,318.33007309999084,318.83056440000655,,,,,,11,004,21,Male,2023-05-02_17h27.51.461,face_recognition_ERP_protocol,2022.2.5,59.954842011145466,
Celebs/49_Johnny_Depp_0013.jpg,non_target,1,0,1,0,0,112,112,33,,,,,,,,,,,,,319.3312381999858,319.3312381999858,319.8316812000121,,,,,,11,004,21,Male,2023-05-02_17h27.51.461,face_recognition_ERP_protocol,2022.2.5,59.954842011145466,
Celebs/48_Johnny_Depp_0005.jpg,non_target,1,0,1,0,0,113,113,54,,,,,,,,,,,,,320.33235690000583,320.33235690000583,320.83283780000056,,,,,,11,004,21,Male,2023-05-02_17h27.51.461,face_recognition_ERP_protocol,2022.2.5,59.954842011145466,
Celebs/16_Emma_Stone_0008.jpg,non_target,1,0,1,0,0,114,114,48,,,,,,,,,,,,,321.33351470000343,321.33351470000343,321.8339205000084,,,,,,11,004,21,Male,2023-05-02_17h27.51.461,face_recognition_ERP_protocol,2022.2.5,59.954842011145466,
Celebs/18_Emma_Stone_0016.jpg,non_target,1,0,1,0,0,115,115,52,,,,,,,,,,,,,322.33467089998885,322.33467089998885,322.8356588000024,,,,,,11,004,21,Male,2023-05-02_17h27.51.461,face_recognition_ERP_protocol,2022.2.5,59.954842011145466,
Celebs/43_Will_Smith_0007.jpg,non_target,1,0,1,0,0,116,116,74,,,,,,,,,,,,,323.3361053999979,323.3361053999979,323.83655109998654,,,,,,11,004,21,Male,2023-05-02_17h27.51.461,face_recognition_ERP_protocol,2022.2.5,59.954842011145466,
Celebs/22_Emma_Watson_0010.jpg,non_target,1,0,1,0,0,117,117,11,,,,,,,,,,,,,324.3369576999976,324.3369576999976,324.8373653999879,,,,,,11,004,21,Male,2023-05-02_17h27.51.461,face_recognition_ERP_protocol,2022.2.5,59.954842011145466,
Celebs/48_Johnny_Depp_0003.jpg,non_target,1,0,1,0,0,118,118,55,,,,,,,,,,,,,325.3381933000055,325.3381933000055,325.8384986000019,,,,,,11,004,21,Male,2023-05-02_17h27.51.461,face_recognition_ERP_protocol,2022.2.5,59.954842011145466,
Celebs/37_Neil_Patrick_Harris_0014.jpg,non_target,1,0,1,0,0,119,119,37,,,,,,,,,,,,,326.3391241999925,326.3391241999925,326.8396553999919,,,,,,11,004,21,Male,2023-05-02_17h27.51.461,face_recognition_ERP_protocol,2022.2.5,59.954842011145466,
Celebs/50_Johnny_Depp_0008.jpg,non_target,2,0,2,0,0,0,0,84,,,,,,,,,,,,,331.06149580000783,331.06149580000783,331.5449665999913,327.3234969000041,327.3234969000041,space,3.6778483999951277,,11,004,21,Male,2023-05-02_17h27.51.461,face_recognition_ERP_protocol,2022.2.5,59.954842011145466,
Celebs/14_Emma_Watson_0008.jpg,non_target,2,0,2,0,0,1,1,36,,,,,,,,,,,,,332.04556669999147,332.04556669999147,332.52943930000765,,,,,,11,004,21,Male,2023-05-02_17h27.51.461,face_recognition_ERP_protocol,2022.2.5,59.954842011145466,
Celebs/58_Jackie_Chan_0005.jpg,non_target,2,0,2,0,0,2,2,3,,,,,,,,,,,,,333.03012519999174,333.03012519999174,333.5305863000103,,,,,,11,004,21,Male,2023-05-02_17h27.51.461,face_recognition_ERP_protocol,2022.2.5,59.954842011145466,
Celebs/57_Jackie_Chan_0008.jpg,non_target,2,0,2,0,0,3,3,72,,,,,,,,,,,,,334.03120669999043,334.03120669999043,334.5317597000103,,,,,,11,004,21,Male,2023-05-02_17h27.51.461,face_recognition_ERP_protocol,2022.2.5,59.954842011145466,
Celebs/16_Margot_Robbie_0009.jpg,non_target,2,0,2,0,0,4,4,107,,,,,,,,,,,,,335.03228559999843,335.03228559999843,335.53283119999105,,,,,,11,004,21,Male,2023-05-02_17h27.51.461,face_recognition_ERP_protocol,2022.2.5,59.954842011145466,
Celebs/39_Jim_Parsons_0004.jpg,non_target,2,0,2,0,0,5,5,88,,,,,,,,,,,,,336.0334697999933,336.0334697999933,336.5340131999983,,,,,,11,004,21,Male,2023-05-02_17h27.51.461,face_recognition_ERP_protocol,2022.2.5,59.954842011145466,
Celebs/22_Scarlett_Johansson_0005.jpg,non_target,2,0,2,0,0,6,6,44,,,,,,,,,,,,,337.03468209999846,337.03468209999846,337.5350738999841,,,,,,11,004,21,Male,2023-05-02_17h27.51.461,face_recognition_ERP_protocol,2022.2.5,59.954842011145466,
Celebs/51_Jackie_Chan_0006.jpg,non_target,2,0,2,0,0,7,7,97,,,,,,,,,,,,,338.0357313999848,338.0357313999848,338.53623399999924,,,,,,11,004,21,Male,2023-05-02_17h27.51.461,face_recognition_ERP_protocol,2022.2.5,59.954842011145466,
Celebs/54_Jackie_Chan_0014.jpg,non_target,2,0,2,0,0,8,8,111,,,,,,,,,,,,,339.03683140000794,339.03683140000794,339.5373397000076,,,,,,11,004,21,Male,2023-05-02_17h27.51.461,face_recognition_ERP_protocol,2022.2.5,59.954842011145466,
Celebs/20_Emma_Stone_0005.jpg,non_target,2,0,2,0,0,9,9,63,,,,,,,,,,,,,340.03798319998896,340.03798319998896,340.53846109998995,,,,,,11,004,21,Male,2023-05-02_17h27.51.461,face_recognition_ERP_protocol,2022.2.5,59.954842011145466,
Celebs/14_Emma_Watson_0013.jpg,non_target,2,0,2,0,0,10,10,20,,,,,,,,,,,,,341.0392203000083,341.0392203000083,341.5395950000093,,,,,,11,004,21,Male,2023-05-02_17h27.51.461,face_recognition_ERP_protocol,2022.2.5,59.954842011145466,
Celebs/32_Jim_Parsons_0018.jpg,non_target,2,0,2,0,0,11,11,46,,,,,,,,,,,,,342.04033530000015,342.04033530000015,342.54065069998614,,,,,,11,004,21,Male,2023-05-02_17h27.51.461,face_recognition_ERP_protocol,2022.2.5,59.954842011145466,
Celebs/33_Jim_Parsons_0011.jpg,non_target,2,0,2,0,0,12,12,34,,,,,,,,,,,,,343.0412936999928,343.0412936999928,343.5417941999913,,,,,,11,004,21,Male,2023-05-02_17h27.51.461,face_recognition_ERP_protocol,2022.2.5,59.954842011145466,
Celebs/17_Margot_Robbie_0006.jpg,non_target,2,0,2,0,0,13,13,17,,,,,,,,,,,,,344.0424256999977,344.0424256999977,344.542967699992,,,,,,11,004,21,Male,2023-05-02_17h27.51.461,face_recognition_ERP_protocol,2022.2.5,59.954842011145466,
Celebs/21_Daniel_Radcliffe_0012.jpg,target,2,0,2,0,0,14,14,8,,,,,,,,,,,,,345.04355830000713,345.04355830000713,345.5441213999875,,,,,,11,004,21,Male,2023-05-02_17h27.51.461,face_recognition_ERP_protocol,2022.2.5,59.954842011145466,
Celebs/52_Jackie_Chan_0002.jpg,non_target,2,0,2,0,0,15,15,68,,,,,,,,,,,,,346.0446940000111,346.0446940000111,346.5453878999979,,,,,,11,004,21,Male,2023-05-02_17h27.51.461,face_recognition_ERP_protocol,2022.2.5,59.954842011145466,
Celebs/34_Neil_Patrick_Harris_0007.jpg,non_target,2,0,2,0,0,16,16,117,,,,,,,,,,,,,347.04582699999446,347.04582699999446,347.52964289998636,,,,,,11,004,21,Male,2023-05-02_17h27.51.461,face_recognition_ERP_protocol,2022.2.5,59.954842011145466,
Celebs/21_Emma_Watson_0004.jpg,non_target,2,0,2,0,0,17,17,21,,,,,,,,,,,,,348.03079369998886,348.03079369998886,348.53118550000363,,,,,,11,004,21,Male,2023-05-02_17h27.51.461,face_recognition_ERP_protocol,2022.2.5,59.954842011145466,
Celebs/24_Daniel_Radcliffe_0017.jpg,target,2,0,2,0,0,18,18,71,,,,,,,,,,,,,349.03151430000435,349.03151430000435,349.53221519998624,,,,,,11,004,21,Male,2023-05-02_17h27.51.461,face_recognition_ERP_protocol,2022.2.5,59.954842011145466,
Celebs/18_Daniel_Radcliffe_0002.jpg,target,2,0,2,0,0,19,19,119,,,,,,,,,,,,,350.03334369999357,350.03334369999357,350.5330554000102,,,,,,11,004,21,Male,2023-05-02_17h27.51.461,face_recognition_ERP_protocol,2022.2.5,59.954842011145466,
Celebs/39_Neil_Patrick_Harris_0001.jpg,non_target,2,0,2,0,0,20,20,4,,,,,,,,,,,,,351.03289149998454,351.03289149998454,351.5347002999915,,,,,,11,004,21,Male,2023-05-02_17h27.51.461,face_recognition_ERP_protocol,2022.2.5,59.954842011145466,
Celebs/50_Johnny_Depp_0004.jpg,non_target,2,0,2,0,0,21,21,39,,,,,,,,,,,,,352.03529349999735,352.03529349999735,352.5356538000051,,,,,,11,004,21,Male,2023-05-02_17h27.51.461,face_recognition_ERP_protocol,2022.2.5,59.954842011145466,
Celebs/21_Emma_Stone_0003.jpg,non_target,2,0,2,0,0,22,22,25,,,,,,,,,,,,,353.0360803999938,353.0360803999938,353.53645439998945,,,,,,11,004,21,Male,2023-05-02_17h27.51.461,face_recognition_ERP_protocol,2022.2.5,59.954842011145466,
Celebs/21_Scarlett_Johansson_0007.jpg,non_target,2,0,2,0,0,23,23,118,,,,,,,,,,,,,354.0371149999846,354.0371149999846,354.53763050001,,,,,,11,004,21,Male,2023-05-02_17h27.51.461,face_recognition_ERP_protocol,2022.2.5,59.954842011145466,
Celebs/48_Johnny_Depp_0005.jpg,non_target,2,0,2,0,0,24,24,54,,,,,,,,,,,,,355.03830019998713,355.03830019998713,355.5387957000057,,,,,,11,004,21,Male,2023-05-02_17h27.51.461,face_recognition_ERP_protocol,2022.2.5,59.954842011145466,
Celebs/45_Will_Smith_0014.jpg,non_target,2,0,2,0,0,25,25,59,,,,,,,,,,,,,356.0394326999958,356.0394326999958,356.53988870000467,,,,,,11,004,21,Male,2023-05-02_17h27.51.461,face_recognition_ERP_protocol,2022.2.5,59.954842011145466,
Celebs/48_Johnny_Depp_0003.jpg,non_target,2,0,2,0,0,26,26,55,,,,,,,,,,,,,357.0405904999934,357.0405904999934,357.5411385000043,,,,,,11,004,21,Male,2023-05-02_17h27.51.461,face_recognition_ERP_protocol,2022.2.5,59.954842011145466,
Celebs/38_Neil_Patrick_Harris_0006.jpg,non_target,2,0,2,0,0,27,27,31,,,,,,,,,,,,,358.04166409999016,358.04166409999016,358.54215160000604,,,,,,11,004,21,Male,2023-05-02_17h27.51.461,face_recognition_ERP_protocol,2022.2.5,59.954842011145466,
Celebs/50_Jackie_Chan_0014.jpg,non_target,2,0,2,0,0,28,28,38,,,,,,,,,,,,,359.0428602999891,359.0428602999891,359.5433014000009,,,,,,11,004,21,Male,2023-05-02_17h27.51.461,face_recognition_ERP_protocol,2022.2.5,59.954842011145466,
Celebs/35_Neil_Patrick_Harris_0009.jpg,non_target,2,0,2,0,0,29,29,87,,,,,,,,,,,,,360.0439604999847,360.0439604999847,360.54444669999066,,,,,,11,004,21,Male,2023-05-02_17h27.51.461,face_recognition_ERP_protocol,2022.2.5,59.954842011145466,
Celebs/28_Scarlett_Johansson_0005.jpg,non_target,2,0,2,0,0,30,30,50,,,,,,,,,,,,,361.04512609998346,361.04512609998346,361.5457766999898,,,,,,11,004,21,Male,2023-05-02_17h27.51.461,face_recognition_ERP_protocol,2022.2.5,59.954842011145466,
Celebs/55_Jackie_Chan_0008.jpg,non_target,2,0,2,0,0,31,31,92,,,,,,,,,,,,,362.02953549998347,362.02953549998347,362.5300065999909,,,,,,11,004,21,Male,2023-05-02_17h27.51.461,face_recognition_ERP_protocol,2022.2.5,59.954842011145466,
Celebs/37_Neil_Patrick_Harris_0014.jpg,non_target,2,0,2,0,0,32,32,37,,,,,,,,,,,,,363.0306869999913,363.0306869999913,363.5311237999995,,,,,,11,004,21,Male,2023-05-02_17h27.51.461,face_recognition_ERP_protocol,2022.2.5,59.954842011145466,
Celebs/21_Daniel_Radcliffe_0009.jpg,target,2,0,2,0,0,33,33,83,,,,,,,,,,,,,364.0317933000042,364.0317933000042,364.53223690000596,,,,,,11,004,21,Male,2023-05-02_17h27.51.461,face_recognition_ERP_protocol,2022.2.5,59.954842011145466,
Celebs/23_Daniel_Radcliffe_0002.jpg,target,2,0,2,0,0,34,34,77,,,,,,,,,,,,,365.0328359999985,365.0328359999985,365.53335179999704,,,,,,11,004,21,Male,2023-05-02_17h27.51.461,face_recognition_ERP_protocol,2022.2.5,59.954842011145466,
Celebs/39_Jim_Parsons_0010.jpg,non_target,2,0,2,0,0,35,35,0,,,,,,,,,,,,,366.0339834000042,366.0339834000042,366.53454240001156,,,,,,11,004,21,Male,2023-05-02_17h27.51.461,face_recognition_ERP_protocol,2022.2.5,59.954842011145466,
Celebs/29_Scarlett_Johansson_0010.jpg,non_target,2,0,2,0,0,36,36,85,,,,,,,,,,,,,367.03526239999337,367.03526239999337,367.53567670000484,,,,,,11,004,21,Male,2023-05-02_17h27.51.461,face_recognition_ERP_protocol,2022.2.5,59.954842011145466,
Celebs/36_Neil_Patrick_Harris_0007.jpg,non_target,2,0,2,0,0,37,37,5,,,,,,,,,,,,,368.0363420000067,368.0363420000067,368.536800700007,,,,,,11,004,21,Male,2023-05-02_17h27.51.461,face_recognition_ERP_protocol,2022.2.5,59.954842011145466,
Celebs/20_Margot_Robbie_0006.jpg,non_target,2,0,2,0,0,38,38,35,,,,,,,,,,,,,369.0374668999866,369.0374668999866,369.53792840000824,,,,,,11,004,21,Male,2023-05-02_17h27.51.461,face_recognition_ERP_protocol,2022.2.5,59.954842011145466,
Celebs/39_Jim_Parsons_0008.jpg,non_target,2,0,2,0,0,39,39,89,,,,,,,,,,,,,370.03858480000054,370.03858480000054,370.5390744000033,,,,,,11,004,21,Male,2023-05-02_17h27.51.461,face_recognition_ERP_protocol,2022.2.5,59.954842011145466,
Celebs/14_Emma_Watson_0004.jpg,non_target,2,0,2,0,0,40,40,14,,,,,,,,,,,,,371.0396904000081,371.0396904000081,371.5402316999971,,,,,,11,004,21,Male,2023-05-02_17h27.51.461,face_recognition_ERP_protocol,2022.2.5,59.954842011145466,
Celebs/23_Daniel_Radcliffe_0019.jpg,target,2,0,2,0,0,41,41,6,,,,,,,,,,,,,372.0408737999969,372.0408737999969,372.54132829999435,,,,,,11,004,21,Male,2023-05-02_17h27.51.461,face_recognition_ERP_protocol,2022.2.5,59.954842011145466,
Celebs/43_Will_Smith_0010.jpg,non_target,2,0,2,0,0,42,42,22,,,,,,,,,,,,,373.04193499998655,373.04193499998655,373.5424362999911,,,,,,11,004,21,Male,2023-05-02_17h27.51.461,face_recognition_ERP_protocol,2022.2.5,59.954842011145466,
Celebs/44_Will_Smith_0015.jpg,non_target,2,0,2,0,0,43,43,101,,,,,,,,,,,,,374.0430428000109,374.0430428000109,374.5435959000024,,,,,,11,004,21,Male,2023-05-02_17h27.51.461,face_recognition_ERP_protocol,2022.2.5,59.954842011145466,
Celebs/47_Johnny_Depp_0004.jpg,non_target,2,0,2,0,0,44,44,76,,,,,,,,,,,,,375.04420919998665,375.04420919998665,375.54468289998476,,,,,,11,004,21,Male,2023-05-02_17h27.51.461,face_recognition_ERP_protocol,2022.2.5,59.954842011145466,
Celebs/21_Daniel_Radcliffe_0002.jpg,target,2,0,2,0,0,45,45,60,,,,,,,,,,,,,376.0453601999907,376.0453601999907,376.545812700002,,,,,,11,004,21,Male,2023-05-02_17h27.51.461,face_recognition_ERP_protocol,2022.2.5,59.954842011145466,
Celebs/33_Neil_Patrick_Harris_0011.jpg,non_target,2,0,2,0,0,46,46,112,,,,,,,,,,,,,377.02986539999256,377.02986539999256,377.5302352999861,,,,,,11,004,21,Male,2023-05-02_17h27.51.461,face_recognition_ERP_protocol,2022.2.5,59.954842011145466,
Celebs/42_Will_Smith_0012.jpg,non_target,2,0,2,0,0,47,47,64,,,,,,,,,,,,,378.03092570000445,378.03092570000445,378.53138929998386,,,,,,11,004,21,Male,2023-05-02_17h27.51.461,face_recognition_ERP_protocol,2022.2.5,59.954842011145466,
Celebs/40_Will_Smith_0012.jpg,non_target,2,0,2,0,0,48,48,110,,,,,,,,,,,,,379.032054899988,379.032054899988,379.53259889999754,,,,,,11,004,21,Male,2023-05-02_17h27.51.461,face_recognition_ERP_protocol,2022.2.5,59.954842011145466,
Celebs/18_Daniel_Radcliffe_0007.jpg,target,2,0,2,0,0,49,49,81,,,,,,,,,,,,,380.03312800001004,380.03312800001004,380.53367489998345,,,,,,11,004,21,Male,2023-05-02_17h27.51.461,face_recognition_ERP_protocol,2022.2.5,59.954842011145466,
Celebs/50_Jackie_Chan_0012.jpg,non_target,2,0,2,0,0,50,50,43,,,,,,,,,,,,,381.0343290999881,381.0343290999881,381.53482619998977,,,,,,11,004,21,Male,2023-05-02_17h27.51.461,face_recognition_ERP_protocol,2022.2.5,59.954842011145466,
Celebs/24_Emma_Stone_0015.jpg,non_target,2,0,2,0,0,51,51,57,,,,,,,,,,,,,382.03550150000956,382.03550150000956,382.5361356000067,,,,,,11,004,21,Male,2023-05-02_17h27.51.461,face_recognition_ERP_protocol,2022.2.5,59.954842011145466,
Celebs/19_Margot_Robbie_0001.jpg,non_target,2,0,2,0,0,52,52,51,,,,,,,,,,,,,383.0366670000076,383.0366670000076,383.53708079998614,,,,,,11,004,21,Male,2023-05-02_17h27.51.461,face_recognition_ERP_protocol,2022.2.5,59.954842011145466,
Celebs/26_Scarlett_Johansson_0003.jpg,non_target,2,0,2,0,0,53,53,105,,,,,,,,,,,,,384.0377129999979,384.0377129999979,384.5381931999873,,,,,,11,004,21,Male,2023-05-02_17h27.51.461,face_recognition_ERP_protocol,2022.2.5,59.954842011145466,
Celebs/54_Jackie_Chan_0001.jpg,non_target,2,0,2,0,0,54,54,7,,,,,,,,,,,,,385.03886450000573,385.03886450000573,385.53931990001,,,,,,11,004,21,Male,2023-05-02_17h27.51.461,face_recognition_ERP_protocol,2022.2.5,59.954842011145466,
Celebs/16_Emma_Stone_0008.jpg,non_target,2,0,2,0,0,55,55,48,,,,,,,,,,,,,386.04003539998666,386.04003539998666,386.54049419998773,,,,,,11,004,21,Male,2023-05-02_17h27.51.461,face_recognition_ERP_protocol,2022.2.5,59.954842011145466,
Celebs/19_Emma_Stone_0006.jpg,non_target,2,0,2,0,0,56,56,66,,,,,,,,,,,,,387.04120569999213,387.04120569999213,387.5416433000064,,,,,,11,004,21,Male,2023-05-02_17h27.51.461,face_recognition_ERP_protocol,2022.2.5,59.954842011145466,
Celebs/32_Jim_Parsons_0010.jpg,non_target,2,0,2,0,0,57,57,98,,,,,,,,,,,,,388.0422891000053,388.0422891000053,388.5427076999913,,,,,,11,004,21,Male,2023-05-02_17h27.51.461,face_recognition_ERP_protocol,2022.2.5,59.954842011145466,
Celebs/50_Johnny_Depp_0010.jpg,non_target,2,0,2,0,0,58,58,115,,,,,,,,,,,,,389.0435448999924,389.0435448999924,389.54382059999625,,,,,,11,004,21,Male,2023-05-02_17h27.51.461,face_recognition_ERP_protocol,2022.2.5,59.954842011145466,
Celebs/17_Emma_Watson_0006.jpg,non_target,2,0,2,0,0,59,59,90,,,,,,,,,,,,,390.0444970999961,390.0444970999961,390.5449738999887,,,,,,11,004,21,Male,2023-05-02_17h27.51.461,face_recognition_ERP_protocol,2022.2.5,59.954842011145466,
Celebs/43_Will_Smith_0006.jpg,non_target,2,0,2,0,0,60,60,61,,,,,,,,,,,,,391.04585289998795,391.04585289998795,391.52940309999394,,,,,,11,004,21,Male,2023-05-02_17h27.51.461,face_recognition_ERP_protocol,2022.2.5,59.954842011145466,
Celebs/18_Emma_Watson_0004.jpg,non_target,2,0,2,0,0,61,61,75,,,,,,,,,,,,,392.0301502000075,392.0301502000075,392.53063819999807,,,,,,11,004,21,Male,2023-05-02_17h27.51.461,face_recognition_ERP_protocol,2022.2.5,59.954842011145466,
Celebs/32_Jim_Parsons_0016.jpg,non_target,2,0,2,0,0,62,62,102,,,,,,,,,,,,,393.0313977999904,393.0313977999904,393.53168009998626,,,,,,11,004,21,Male,2023-05-02_17h27.51.461,face_recognition_ERP_protocol,2022.2.5,59.954842011145466,
Celebs/55_Jackie_Chan_0003.jpg,non_target,2,0,2,0,0,63,63,29,,,,,,,,,,,,,394.0323529999878,394.0323529999878,394.53282809999655,,,,,,11,004,21,Male,2023-05-02_17h27.51.461,face_recognition_ERP_protocol,2022.2.5,59.954842011145466,
Celebs/49_Johnny_Depp_0013.jpg,non_target,2,0,2,0,0,64,64,33,,,,,,,,,,,,,395.0334705999994,395.0334705999994,395.53397170000244,,,,,,11,004,21,Male,2023-05-02_17h27.51.461,face_recognition_ERP_protocol,2022.2.5,59.954842011145466,
Celebs/38_Will_Smith_0013.jpg,non_target,2,0,2,0,0,65,65,13,,,,,,,,,,,,,396.0345532000065,396.0345532000065,396.5351546999882,,,,,,11,004,21,Male,2023-05-02_17h27.51.461,face_recognition_ERP_protocol,2022.2.5,59.954842011145466,
Celebs/17_Margot_Robbie_0012.jpg,non_target,2,0,2,0,0,66,66,67,,,,,,,,,,,,,397.03565859998344,397.03565859998344,397.5362038000021,,,,,,11,004,21,Male,2023-05-02_17h27.51.461,face_recognition_ERP_protocol,2022.2.5,59.954842011145466,
Celebs/17_Daniel_Radcliffe_0007.jpg,target,2,0,2,0,0,67,67,19,,,,,,,,,,,,,398.0368435999844,398.0368435999844,398.5375917000056,,,,,,11,004,21,Male,2023-05-02_17h27.51.461,face_recognition_ERP_protocol,2022.2.5,59.954842011145466,
Celebs/22_Margot_Robbie_0010.jpg,non_target,2,0,2,0,0,68,68,18,,,,,,,,,,,,,399.0379074999946,399.0379074999946,399.53843499999493,,,,,,11,004,21,Male,2023-05-02_17h27.51.461,face_recognition_ERP_protocol,2022.2.5,59.954842011145466,
Celebs/44_Will_Smith_0006.jpg,non_target,2,0,2,0,0,69,69,41,,,,,,,,,,,,,400.0390558000072,400.0390558000072,400.5395765999856,,,,,,11,004,21,Male,2023-05-02_17h27.51.461,face_recognition_ERP_protocol,2022.2.5,59.954842011145466,
Celebs/36_Neil_Patrick_Harris_0010.jpg,non_target,2,0,2,0,0,70,70,79,,,,,,,,,,,,,401.0401586999942,401.0401586999942,401.5406939999957,,,,,,11,004,21,Male,2023-05-02_17h27.51.461,face_recognition_ERP_protocol,2022.2.5,59.954842011145466,
Celebs/37_Neil_Patrick_Harris_0010.jpg,non_target,2,0,2,0,0,71,71,93,,,,,,,,,,,,,402.0414294000075,402.0414294000075,402.5418773999845,,,,,,11,004,21,Male,2023-05-02_17h27.51.461,face_recognition_ERP_protocol,2022.2.5,59.954842011145466,
Celebs/38_Jim_Parsons_0003.jpg,non_target,2,0,2,0,0,72,72,53,,,,,,,,,,,,,403.0424233000085,403.0424233000085,403.5429315000074,,,,,,11,004,21,Male,2023-05-02_17h27.51.461,face_recognition_ERP_protocol,2022.2.5,59.954842011145466,
Celebs/57_Jackie_Chan_0010.jpg,non_target,2,0,2,0,0,73,73,62,,,,,,,,,,,,,404.0435534999997,404.0435534999997,404.54407959998935,,,,,,11,004,21,Male,2023-05-02_17h27.51.461,face_recognition_ERP_protocol,2022.2.5,59.954842011145466,
Celebs/20_Scarlett_Johansson_0011.jpg,non_target,2,0,2,0,0,74,74,109,,,,,,,,,,,,,405.04467649999424,405.04467649999424,405.5451846999931,,,,,,11,004,21,Male,2023-05-02_17h27.51.461,face_recognition_ERP_protocol,2022.2.5,59.954842011145466,
Celebs/19_Margot_Robbie_0004.jpg,non_target,2,0,2,0,0,75,75,42,,,,,,,,,,,,,406.04585059999954,406.04585059999954,406.52964809999685,,,,,,11,004,21,Male,2023-05-02_17h27.51.461,face_recognition_ERP_protocol,2022.2.5,59.954842011145466,
Celebs/15_Margot_Robbie_0005.jpg,non_target,2,0,2,0,0,76,76,80,,,,,,,,,,,,,407.0302769000118,407.0302769000118,407.5308770999836,,,,,,11,004,21,Male,2023-05-02_17h27.51.461,face_recognition_ERP_protocol,2022.2.5,59.954842011145466,
Celebs/21_Daniel_Radcliffe_0008.jpg,target,2,0,2,0,0,77,77,16,,,,,,,,,,,,,408.03140199999325,408.03140199999325,408.5319567999977,,,,,,11,004,21,Male,2023-05-02_17h27.51.461,face_recognition_ERP_protocol,2022.2.5,59.954842011145466,
Celebs/18_Daniel_Radcliffe_0008.jpg,target,2,0,2,0,0,78,78,28,,,,,,,,,,,,,409.03260869998485,409.03260869998485,409.53332899999805,,,,,,11,004,21,Male,2023-05-02_17h27.51.461,face_recognition_ERP_protocol,2022.2.5,59.954842011145466,
Celebs/22_Emma_Watson_0010.jpg,non_target,2,0,2,0,0,79,79,11,,,,,,,,,,,,,410.03363119999995,410.03363119999995,410.5343557999877,,,,,,11,004,21,Male,2023-05-02_17h27.51.461,face_recognition_ERP_protocol,2022.2.5,59.954842011145466,
Celebs/40_Jim_Parsons_0004.jpg,non_target,2,0,2,0,0,80,80,73,,,,,,,,,,,,,411.0348316000018,411.0348316000018,411.5353456999874,,,,,,11,004,21,Male,2023-05-02_17h27.51.461,face_recognition_ERP_protocol,2022.2.5,59.954842011145466,
Celebs/55_Jackie_Chan_0015.jpg,non_target,2,0,2,0,0,81,81,30,,,,,,,,,,,,,412.03604479998467,412.03604479998467,412.5366045999981,,,,,,11,004,21,Male,2023-05-02_17h27.51.461,face_recognition_ERP_protocol,2022.2.5,59.954842011145466,
Celebs/48_Johnny_Depp_0001.jpg,non_target,2,0,2,0,0,82,82,106,,,,,,,,,,,,,413.0370413000055,413.0370413000055,413.5376300000062,,,,,,11,004,21,Male,2023-05-02_17h27.51.461,face_recognition_ERP_protocol,2022.2.5,59.954842011145466,
Celebs/15_Margot_Robbie_0012.jpg,non_target,2,0,2,0,0,83,83,82,,,,,,,,,,,,,414.03823629999533,414.03823629999533,414.53876299998956,,,,,,11,004,21,Male,2023-05-02_17h27.51.461,face_recognition_ERP_protocol,2022.2.5,59.954842011145466,
Celebs/14_Emma_Watson_0005.jpg,non_target,2,0,2,0,0,84,84,26,,,,,,,,,,,,,415.039844599989,415.039844599989,415.54001649998827,,,,,,11,004,21,Male,2023-05-02_17h27.51.461,face_recognition_ERP_protocol,2022.2.5,59.954842011145466,
Celebs/39_Jim_Parsons_0001.jpg,non_target,2,0,2,0,0,85,85,49,,,,,,,,,,,,,416.0400430999871,416.0400430999871,416.54124029999366,,,,,,11,004,21,Male,2023-05-02_17h27.51.461,face_recognition_ERP_protocol,2022.2.5,59.954842011145466,
Celebs/16_Emma_Stone_0012.jpg,non_target,2,0,2,0,0,86,86,70,,,,,,,,,,,,,417.04090500000166,417.04090500000166,417.54238420000183,,,,,,11,004,21,Male,2023-05-02_17h27.51.461,face_recognition_ERP_protocol,2022.2.5,59.954842011145466,
Celebs/21_Emma_Stone_0002.jpg,non_target,2,0,2,0,0,87,87,103,,,,,,,,,,,,,418.0423960000044,418.0423960000044,418.54328919999534,,,,,,11,004,21,Male,2023-05-02_17h27.51.461,face_recognition_ERP_protocol,2022.2.5,59.954842011145466,
Celebs/29_Scarlett_Johansson_0016.jpg,non_target,2,0,2,0,0,88,88,2,,,,,,,,,,,,,419.0439508999989,419.0439508999989,419.5443446999998,,,,,,11,004,21,Male,2023-05-02_17h27.51.461,face_recognition_ERP_protocol,2022.2.5,59.954842011145466,
Celebs/45_Johnny_Depp_0003.jpg,non_target,2,0,2,0,0,89,89,108,,,,,,,,,,,,,420.04507719998946,420.04507719998946,420.54553959998884,,,,,,11,004,21,Male,2023-05-02_17h27.51.461,face_recognition_ERP_protocol,2022.2.5,59.954842011145466,
Celebs/44_Will_Smith_0007.jpg,non_target,2,0,2,0,0,90,90,65,,,,,,,,,,,,,421.02952109999023,421.02952109999023,421.5299408999854,,,,,,11,004,21,Male,2023-05-02_17h27.51.461,face_recognition_ERP_protocol,2022.2.5,59.954842011145466,
Celebs/14_Emma_Watson_0015.jpg,non_target,2,0,2,0,0,91,91,56,,,,,,,,,,,,,422.03063980001025,422.03063980001025,422.53117020000354,,,,,,11,004,21,Male,2023-05-02_17h27.51.461,face_recognition_ERP_protocol,2022.2.5,59.954842011145466,
Celebs/26_Scarlett_Johansson_0008.jpg,non_target,2,0,2,0,0,92,92,47,,,,,,,,,,,,,423.03174589999253,423.03174589999253,423.5322392999951,,,,,,11,004,21,Male,2023-05-02_17h27.51.461,face_recognition_ERP_protocol,2022.2.5,59.954842011145466,
Celebs/24_Scarlett_Johansson_0011.jpg,non_target,2,0,2,0,0,93,93,100,,,,,,,,,,,,,424.0329019000055,424.0329019000055,424.5334220000077,,,,,,11,004,21,Male,2023-05-02_17h27.51.461,face_recognition_ERP_protocol,2022.2.5,59.954842011145466,
Celebs/47_Johnny_Depp_0009.jpg,non_target,2,0,2,0,0,94,94,23,,,,,,,,,,,,,425.0340317999944,425.0340317999944,425.5344860999903,,,,,,11,004,21,Male,2023-05-02_17h27.51.461,face_recognition_ERP_protocol,2022.2.5,59.954842011145466,
Celebs/45_Will_Smith_0010.jpg,non_target,2,0,2,0,0,95,95,69,,,,,,,,,,,,,426.0351390999858,426.0351390999858,426.5357849999855,,,,,,11,004,21,Male,2023-05-02_17h27.51.461,face_recognition_ERP_protocol,2022.2.5,59.954842011145466,
Celebs/36_Jim_Parsons_0011.jpg,non_target,2,0,2,0,0,96,96,86,,,,,,,,,,,,,427.0363236000121,427.0363236000121,427.53790090000257,,,,,,11,004,21,Male,2023-05-02_17h27.51.461,face_recognition_ERP_protocol,2022.2.5,59.954842011145466,
Celebs/16_Emma_Stone_0014.jpg,non_target,2,0,2,0,0,97,97,40,,,,,,,,,,,,,428.03787870000815,428.03787870000815,428.5380591999856,,,,,,11,004,21,Male,2023-05-02_17h27.51.461,face_recognition_ERP_protocol,2022.2.5,59.954842011145466,
Celebs/22_Emma_Stone_0013.jpg,non_target,2,0,2,0,0,98,98,1,,,,,,,,,,,,,429.0385100999847,429.0385100999847,429.5390141000098,,,,,,11,004,21,Male,2023-05-02_17h27.51.461,face_recognition_ERP_protocol,2022.2.5,59.954842011145466,
Celebs/27_Scarlett_Johansson_0012.jpg,non_target,2,0,2,0,0,99,99,78,,,,,,,,,,,,,430.03961790000903,430.03961790000903,430.5401525000052,,,,,,11,004,21,Male,2023-05-02_17h27.51.461,face_recognition_ERP_protocol,2022.2.5,59.954842011145466,
Celebs/16_Emma_Stone_0010.jpg,non_target,2,0,2,0,0,100,100,95,,,,,,,,,,,,,431.04073609999614,431.04073609999614,431.54124550000415,,,,,,11,004,21,Male,2023-05-02_17h27.51.461,face_recognition_ERP_protocol,2022.2.5,59.954842011145466,
Celebs/17_Margot_Robbie_0014.jpg,non_target,2,0,2,0,0,101,101,114,,,,,,,,,,,,,432.04186930001015,432.04186930001015,432.5424044000101,,,,,,11,004,21,Male,2023-05-02_17h27.51.461,face_recognition_ERP_protocol,2022.2.5,59.954842011145466,
Celebs/22_Emma_Watson_0003.jpg,non_target,2,0,2,0,0,102,102,91,,,,,,,,,,,,,433.04304469999624,433.04304469999624,433.5435620000062,,,,,,11,004,21,Male,2023-05-02_17h27.51.461,face_recognition_ERP_protocol,2022.2.5,59.954842011145466,
Celebs/24_Scarlett_Johansson_0001.jpg,non_target,2,0,2,0,0,103,103,10,,,,,,,,,,,,,434.0441615000018,434.0441615000018,434.5446799999918,,,,,,11,004,21,Male,2023-05-02_17h27.51.461,face_recognition_ERP_protocol,2022.2.5,59.954842011145466,
Celebs/50_Johnny_Depp_0018.jpg,non_target,2,0,2,0,0,104,104,24,,,,,,,,,,,,,435.0453703000094,435.0453703000094,435.5457574999891,,,,,,11,004,21,Male,2023-05-02_17h27.51.461,face_recognition_ERP_protocol,2022.2.5,59.954842011145466,
Celebs/18_Emma_Stone_0016.jpg,non_target,2,0,2,0,0,105,105,52,,,,,,,,,,,,,436.0297295000055,436.0297295000055,436.53024679998634,,,,,,11,004,21,Male,2023-05-02_17h27.51.461,face_recognition_ERP_protocol,2022.2.5,59.954842011145466,
Celebs/20_Margot_Robbie_0004.jpg,non_target,2,0,2,0,0,106,106,116,,,,,,,,,,,,,437.03087320001214,437.03087320001214,437.5314175999956,,,,,,11,004,21,Male,2023-05-02_17h27.51.461,face_recognition_ERP_protocol,2022.2.5,59.954842011145466,
Celebs/23_Daniel_Radcliffe_0010.jpg,target,2,0,2,0,0,107,107,15,,,,,,,,,,,,,438.0320517999935,438.0320517999935,438.53251059999457,,,,,,11,004,21,Male,2023-05-02_17h27.51.461,face_recognition_ERP_protocol,2022.2.5,59.954842011145466,
Celebs/47_Johnny_Depp_0003.jpg,non_target,2,0,2,0,0,108,108,9,,,,,,,,,,,,,439.0330801999953,439.0330801999953,439.5337570999982,,,,,,11,004,21,Male,2023-05-02_17h27.51.461,face_recognition_ERP_protocol,2022.2.5,59.954842011145466,
Celebs/34_Neil_Patrick_Harris_0004.jpg,non_target,2,0,2,0,0,109,109,104,,,,,,,,,,,,,440.03423250000924,440.03423250000924,440.5348290000111,,,,,,11,004,21,Male,2023-05-02_17h27.51.461,face_recognition_ERP_protocol,2022.2.5,59.954842011145466,
Celebs/20_Emma_Watson_0007.jpg,non_target,2,0,2,0,0,110,110,96,,,,,,,,,,,,,441.035429999989,441.035429999989,441.5360723999911,,,,,,11,004,21,Male,2023-05-02_17h27.51.461,face_recognition_ERP_protocol,2022.2.5,59.954842011145466,
Celebs/23_Emma_Stone_0014.jpg,non_target,2,0,2,0,0,111,111,12,,,,,,,,,,,,,442.03651159998844,442.03651159998844,442.537075500004,,,,,,11,004,21,Male,2023-05-02_17h27.51.461,face_recognition_ERP_protocol,2022.2.5,59.954842011145466,
Celebs/21_Margot_Robbie_0003.jpg,non_target,2,0,2,0,0,112,112,27,,,,,,,,,,,,,443.0376849999884,443.0376849999884,443.5381943999964,,,,,,11,004,21,Male,2023-05-02_17h27.51.461,face_recognition_ERP_protocol,2022.2.5,59.954842011145466,
Celebs/43_Will_Smith_0007.jpg,non_target,2,0,2,0,0,113,113,74,,,,,,,,,,,,,444.03883700000006,444.03883700000006,444.5394244999916,,,,,,11,004,21,Male,2023-05-02_17h27.51.461,face_recognition_ERP_protocol,2022.2.5,59.954842011145466,
Celebs/31_Neil_Patrick_Harris_0008.jpg,non_target,2,0,2,0,0,114,114,99,,,,,,,,,,,,,445.04001269998844,445.04001269998844,445.5405003000051,,,,,,11,004,21,Male,2023-05-02_17h27.51.461,face_recognition_ERP_protocol,2022.2.5,59.954842011145466,
Celebs/39_Neil_Patrick_Harris_0010.jpg,non_target,2,0,2,0,0,115,115,94,,,,,,,,,,,,,446.0410275000031,446.0410275000031,446.5415573999926,,,,,,11,004,21,Male,2023-05-02_17h27.51.461,face_recognition_ERP_protocol,2022.2.5,59.954842011145466,
Celebs/40_Jim_Parsons_0015.jpg,non_target,2,0,2,0,0,116,116,45,,,,,,,,,,,,,447.0422295999888,447.0422295999888,447.5426960999903,,,,,,11,004,21,Male,2023-05-02_17h27.51.461,face_recognition_ERP_protocol,2022.2.5,59.954842011145466,
Celebs/22_Emma_Watson_0001.jpg,non_target,2,0,2,0,0,117,117,58,,,,,,,,,,,,,448.04334659999586,448.04334659999586,448.5438293000043,,,,,,11,004,21,Male,2023-05-02_17h27.51.461,face_recognition_ERP_protocol,2022.2.5,59.954842011145466,
Celebs/25_Scarlett_Johansson_0010.jpg,non_target,2,0,2,0,0,118,118,32,,,,,,,,,,,,,449.04449169998406,449.04449169998406,449.5449979999976,,,,,,11,004,21,Male,2023-05-02_17h27.51.461,face_recognition_ERP_protocol,2022.2.5,59.954842011145466,
Celebs/37_Will_Smith_0015.jpg,non_target,2,0,2,0,0,119,119,113,,,,,,,,,,,,,450.04559419999714,450.04559419999714,450.5296323999937,,,,,,11,004,21,Male,2023-05-02_17h27.51.461,face_recognition_ERP_protocol,2022.2.5,59.954842011145466,
Celebs/19_Margot_Robbie_0001.jpg,non_target,3,0,3,0,0,0,0,51,,,,,,,,,,,,,455.7502036000078,455.7502036000078,456.2359482999891,451.0300372999918,451.0300372999918,space,4.669045399990864,,11,004,21,Male,2023-05-02_17h27.51.461,face_recognition_ERP_protocol,2022.2.5,59.954842011145466,
Celebs/49_Johnny_Depp_0013.jpg,non_target,3,0,3,0,0,1,1,33,,,,,,,,,,,,,456.73667620000197,456.73667620000197,457.220278599998,,,,,,11,004,21,Male,2023-05-02_17h27.51.461,face_recognition_ERP_protocol,2022.2.5,59.954842011145466,
Celebs/18_Daniel_Radcliffe_0007.jpg,target,3,0,3,0,0,2,2,81,,,,,,,,,,,,,457.7209720000101,457.7209720000101,458.22147940000286,,,,,,11,004,21,Male,2023-05-02_17h27.51.461,face_recognition_ERP_protocol,2022.2.5,59.954842011145466,
Celebs/50_Johnny_Depp_0004.jpg,non_target,3,0,3,0,0,3,3,39,,,,,,,,,,,,,458.7221193999867,458.7221193999867,459.2226418000064,,,,,,11,004,21,Male,2023-05-02_17h27.51.461,face_recognition_ERP_protocol,2022.2.5,59.954842011145466,
Celebs/38_Will_Smith_0013.jpg,non_target,3,0,3,0,0,4,4,13,,,,,,,,,,,,,459.723241700005,459.723241700005,460.22379869999713,,,,,,11,004,21,Male,2023-05-02_17h27.51.461,face_recognition_ERP_protocol,2022.2.5,59.954842011145466,
Celebs/21_Margot_Robbie_0003.jpg,non_target,3,0,3,0,0,5,5,27,,,,,,,,,,,,,460.7243896999862,460.7243896999862,461.2248738000053,,,,,,11,004,21,Male,2023-05-02_17h27.51.461,face_recognition_ERP_protocol,2022.2.5,59.954842011145466,
Celebs/18_Emma_Stone_0016.jpg,non_target,3,0,3,0,0,6,6,52,,,,,,,,,,,,,461.72553550000885,461.72553550000885,462.2259705000033,,,,,,11,004,21,Male,2023-05-02_17h27.51.461,face_recognition_ERP_protocol,2022.2.5,59.954842011145466,
Celebs/55_Jackie_Chan_0008.jpg,non_target,3,0,3,0,0,7,7,92,,,,,,,,,,,,,462.7267125000071,462.7267125000071,463.22708240000065,,,,,,11,004,21,Male,2023-05-02_17h27.51.461,face_recognition_ERP_protocol,2022.2.5,59.954842011145466,
Celebs/39_Neil_Patrick_Harris_0001.jpg,non_target,3,0,3,0,0,8,8,4,,,,,,,,,,,,,463.7276889999921,463.7276889999921,464.2281595999957,,,,,,11,004,21,Male,2023-05-02_17h27.51.461,face_recognition_ERP_protocol,2022.2.5,59.954842011145466,
Celebs/16_Emma_Stone_0008.jpg,non_target,3,0,3,0,0,9,9,48,,,,,,,,,,,,,464.7288653999858,464.7288653999858,465.22928699999466,,,,,,11,004,21,Male,2023-05-02_17h27.51.461,face_recognition_ERP_protocol,2022.2.5,59.954842011145466,
Celebs/48_Johnny_Depp_0005.jpg,non_target,3,0,3,0,0,10,10,54,,,,,,,,,,,,,465.7301709000021,465.7301709000021,466.23045860001,,,,,,11,004,21,Male,2023-05-02_17h27.51.461,face_recognition_ERP_protocol,2022.2.5,59.954842011145466,
Celebs/55_Jackie_Chan_0015.jpg,non_target,3,0,3,0,0,11,11,30,,,,,,,,,,,,,466.7310989999969,466.7310989999969,467.2316640999925,,,,,,11,004,21,Male,2023-05-02_17h27.51.461,face_recognition_ERP_protocol,2022.2.5,59.954842011145466,
Celebs/55_Jackie_Chan_0003.jpg,non_target,3,0,3,0,0,12,12,29,,,,,,,,,,,,,467.73220749999746,467.73220749999746,468.2327535999939,,,,,,11,004,21,Male,2023-05-02_17h27.51.461,face_recognition_ERP_protocol,2022.2.5,59.954842011145466,
Celebs/21_Emma_Stone_0003.jpg,non_target,3,0,3,0,0,13,13,25,,,,,,,,,,,,,468.73345820000395,468.73345820000395,469.23391380000976,,,,,,11,004,21,Male,2023-05-02_17h27.51.461,face_recognition_ERP_protocol,2022.2.5,59.954842011145466,
Celebs/45_Johnny_Depp_0003.jpg,non_target,3,0,3,0,0,14,14,108,,,,,,,,,,,,,469.734517600009,469.734517600009,470.23499989998527,,,,,,11,004,21,Male,2023-05-02_17h27.51.461,face_recognition_ERP_protocol,2022.2.5,59.954842011145466,
Celebs/21_Daniel_Radcliffe_0002.jpg,target,3,0,3,0,0,15,15,60,,,,,,,,,,,,,470.7356189999846,470.7356189999846,471.2361405999982,,,,,,11,004,21,Male,2023-05-02_17h27.51.461,face_recognition_ERP_protocol,2022.2.5,59.954842011145466,
Celebs/43_Will_Smith_0006.jpg,non_target,3,0,3,0,0,16,16,61,,,,,,,,,,,,,471.73678830001154,471.73678830001154,472.2206720999966,,,,,,11,004,21,Male,2023-05-02_17h27.51.461,face_recognition_ERP_protocol,2022.2.5,59.954842011145466,
Celebs/28_Scarlett_Johansson_0005.jpg,non_target,3,0,3,0,0,17,17,50,,,,,,,,,,,,,472.7212647999986,472.7212647999986,473.221867699991,,,,,,11,004,21,Male,2023-05-02_17h27.51.461,face_recognition_ERP_protocol,2022.2.5,59.954842011145466,
Celebs/54_Jackie_Chan_0001.jpg,non_target,3,0,3,0,0,18,18,7,,,,,,,,,,,,,473.7223553000076,473.7223553000076,474.22299939999357,,,,,,11,004,21,Male,2023-05-02_17h27.51.461,face_recognition_ERP_protocol,2022.2.5,59.954842011145466,
Celebs/21_Emma_Watson_0004.jpg,non_target,3,0,3,0,0,19,19,21,,,,,,,,,,,,,474.72343330000876,474.72343330000876,475.2239586999931,,,,,,11,004,21,Male,2023-05-02_17h27.51.461,face_recognition_ERP_protocol,2022.2.5,59.954842011145466,
Celebs/15_Margot_Robbie_0012.jpg,non_target,3,0,3,0,0,20,20,82,,,,,,,,,,,,,475.7246409000072,475.7246409000072,476.2250844000082,,,,,,11,004,21,Male,2023-05-02_17h27.51.461,face_recognition_ERP_protocol,2022.2.5,59.954842011145466,
Celebs/44_Will_Smith_0015.jpg,non_target,3,0,3,0,0,21,21,101,,,,,,,,,,,,,476.72575589999906,476.72575589999906,477.2261578000034,,,,,,11,004,21,Male,2023-05-02_17h27.51.461,face_recognition_ERP_protocol,2022.2.5,59.954842011145466,
Celebs/50_Johnny_Depp_0010.jpg,non_target,3,0,3,0,0,22,22,115,,,,,,,,,,,,,477.7269068000023,477.7269068000023,478.22731499999645,,,,,,11,004,21,Male,2023-05-02_17h27.51.461,face_recognition_ERP_protocol,2022.2.5,59.954842011145466,
Celebs/51_Jackie_Chan_0006.jpg,non_target,3,0,3,0,0,23,23,97,,,,,,,,,,,,,478.7280170999875,478.7280170999875,479.22887570000603,,,,,,11,004,21,Male,2023-05-02_17h27.51.461,face_recognition_ERP_protocol,2022.2.5,59.954842011145466,
Celebs/24_Daniel_Radcliffe_0017.jpg,target,3,0,3,0,0,24,24,71,,,,,,,,,,,,,479.7296897000051,479.7296897000051,480.22960829999647,,,,,,11,004,21,Male,2023-05-02_17h27.51.461,face_recognition_ERP_protocol,2022.2.5,59.954842011145466,
Celebs/42_Will_Smith_0012.jpg,non_target,3,0,3,0,0,25,25,64,,,,,,,,,,,,,480.7297816000064,480.7297816000064,481.2311225000012,,,,,,11,004,21,Male,2023-05-02_17h27.51.461,face_recognition_ERP_protocol,2022.2.5,59.954842011145466,
Celebs/21_Scarlett_Johansson_0007.jpg,non_target,3,0,3,0,0,26,26,118,,,,,,,,,,,,,481.73141370000667,481.73141370000667,482.23203519999515,,,,,,11,004,21,Male,2023-05-02_17h27.51.461,face_recognition_ERP_protocol,2022.2.5,59.954842011145466,
Celebs/21_Daniel_Radcliffe_0009.jpg,target,3,0,3,0,0,27,27,83,,,,,,,,,,,,,482.73264729999937,482.73264729999937,483.23337569998694,,,,,,11,004,21,Male,2023-05-02_17h27.51.461,face_recognition_ERP_protocol,2022.2.5,59.954842011145466,
Celebs/23_Emma_Stone_0014.jpg,non_target,3,0,3,0,0,28,28,12,,,,,,,,,,,,,483.7346523999877,483.7346523999877,484.2341703999846,,,,,,11,004,21,Male,2023-05-02_17h27.51.461,face_recognition_ERP_protocol,2022.2.5,59.954842011145466,
Celebs/48_Johnny_Depp_0003.jpg,non_target,3,0,3,0,0,29,29,55,,,,,,,,,,,,,484.73483880001004,484.73483880001004,485.2353094999853,,,,,,11,004,21,Male,2023-05-02_17h27.51.461,face_recognition_ERP_protocol,2022.2.5,59.954842011145466,
Celebs/25_Scarlett_Johansson_0010.jpg,non_target,3,0,3,0,0,30,30,32,,,,,,,,,,,,,485.73607680000714,485.73607680000714,486.23645870000473,,,,,,11,004,21,Male,2023-05-02_17h27.51.461,face_recognition_ERP_protocol,2022.2.5,59.954842011145466,
Celebs/47_Johnny_Depp_0004.jpg,non_target,3,0,3,0,0,31,31,76,,,,,,,,,,,,,486.72031330000027,486.72031330000027,487.2208357999916,,,,,,11,004,21,Male,2023-05-02_17h27.51.461,face_recognition_ERP_protocol,2022.2.5,59.954842011145466,
Celebs/22_Emma_Watson_0001.jpg,non_target,3,0,3,0,0,32,32,58,,,,,,,,,,,,,487.72143050000886,487.72143050000886,488.22196769999573,,,,,,11,004,21,Male,2023-05-02_17h27.51.461,face_recognition_ERP_protocol,2022.2.5,59.954842011145466,
Celebs/22_Emma_Watson_0010.jpg,non_target,3,0,3,0,0,33,33,11,,,,,,,,,,,,,488.72266979998676,488.72266979998676,489.2232711999968,,,,,,11,004,21,Male,2023-05-02_17h27.51.461,face_recognition_ERP_protocol,2022.2.5,59.954842011145466,
Celebs/16_Emma_Stone_0014.jpg,non_target,3,0,3,0,0,34,34,40,,,,,,,,,,,,,489.72371839999687,489.72371839999687,490.22424209999735,,,,,,11,004,21,Male,2023-05-02_17h27.51.461,face_recognition_ERP_protocol,2022.2.5,59.954842011145466,
Celebs/18_Daniel_Radcliffe_0008.jpg,target,3,0,3,0,0,35,35,28,,,,,,,,,,,,,490.7248649999965,490.7248649999965,491.22533059999114,,,,,,11,004,21,Male,2023-05-02_17h27.51.461,face_recognition_ERP_protocol,2022.2.5,59.954842011145466,
Celebs/43_Will_Smith_0007.jpg,non_target,3,0,3,0,0,36,36,74,,,,,,,,,,,,,491.726030299993,491.726030299993,492.2264925999916,,,,,,11,004,21,Male,2023-05-02_17h27.51.461,face_recognition_ERP_protocol,2022.2.5,59.954842011145466,
Celebs/17_Margot_Robbie_0006.jpg,non_target,3,0,3,0,0,37,37,17,,,,,,,,,,,,,492.7273057999846,492.7273057999846,493.22760990000097,,,,,,11,004,21,Male,2023-05-02_17h27.51.461,face_recognition_ERP_protocol,2022.2.5,59.954842011145466,
Celebs/20_Emma_Watson_0007.jpg,non_target,3,0,3,0,0,38,38,96,,,,,,,,,,,,,493.7285187999951,493.7285187999951,494.228813099995,,,,,,11,004,21,Male,2023-05-02_17h27.51.461,face_recognition_ERP_protocol,2022.2.5,59.954842011145466,
Celebs/35_Neil_Patrick_Harris_0009.jpg,non_target,3,0,3,0,0,39,39,87,,,,,,,,,,,,,494.72948360000737,494.72948360000737,495.2299476999906,,,,,,11,004,21,Male,2023-05-02_17h27.51.461,face_recognition_ERP_protocol,2022.2.5,59.954842011145466,
Celebs/26_Scarlett_Johansson_0003.jpg,non_target,3,0,3,0,0,40,40,105,,,,,,,,,,,,,495.73057489999337,495.73057489999337,496.2310524999921,,,,,,11,004,21,Male,2023-05-02_17h27.51.461,face_recognition_ERP_protocol,2022.2.5,59.954842011145466,
Celebs/26_Scarlett_Johansson_0008.jpg,non_target,3,0,3,0,0,41,41,47,,,,,,,,,,,,,496.731669700006,496.731669700006,497.2321835999901,,,,,,11,004,21,Male,2023-05-02_17h27.51.461,face_recognition_ERP_protocol,2022.2.5,59.954842011145466,
Celebs/33_Neil_Patrick_Harris_0011.jpg,non_target,3,0,3,0,0,42,42,112,,,,,,,,,,,,,497.7328605999937,497.7328605999937,498.2332988999842,,,,,,11,004,21,Male,2023-05-02_17h27.51.461,face_recognition_ERP_protocol,2022.2.5,59.954842011145466,
Celebs/14_Emma_Watson_0015.jpg,non_target,3,0,3,0,0,43,43,56,,,,,,,,,,,,,498.7339822000067,498.7339822000067,499.2344610999862,,,,,,11,004,21,Male,2023-05-02_17h27.51.461,face_recognition_ERP_protocol,2022.2.5,59.954842011145466,
Celebs/20_Emma_Stone_0005.jpg,non_target,3,0,3,0,0,44,44,63,,,,,,,,,,,,,499.7351325000054,499.7351325000054,500.23561500001233,,,,,,11,004,21,Male,2023-05-02_17h27.51.461,face_recognition_ERP_protocol,2022.2.5,59.954842011145466,
Celebs/38_Jim_Parsons_0003.jpg,non_target,3,0,3,0,0,45,45,53,,,,,,,,,,,,,500.7363301999867,500.7363301999867,501.2367266000074,,,,,,11,004,21,Male,2023-05-02_17h27.51.461,face_recognition_ERP_protocol,2022.2.5,59.954842011145466,
Celebs/18_Emma_Watson_0004.jpg,non_target,3,0,3,0,0,46,46,75,,,,,,,,,,,,,501.72060880000936,501.72060880000936,502.2211321000068,,,,,,11,004,21,Male,2023-05-02_17h27.51.461,face_recognition_ERP_protocol,2022.2.5,59.954842011145466,
Celebs/16_Margot_Robbie_0009.jpg,non_target,3,0,3,0,0,47,47,107,,,,,,,,,,,,,502.72176789998775,502.72176789998775,503.22227219998604,,,,,,11,004,21,Male,2023-05-02_17h27.51.461,face_recognition_ERP_protocol,2022.2.5,59.954842011145466,
Celebs/43_Will_Smith_0010.jpg,non_target,3,0,3,0,0,48,48,22,,,,,,,,,,,,,503.72294199999305,503.72294199999305,504.2234029000101,,,,,,11,004,21,Male,2023-05-02_17h27.51.461,face_recognition_ERP_protocol,2022.2.5,59.954842011145466,
Celebs/21_Daniel_Radcliffe_0008.jpg,target,3,0,3,0,0,49,49,16,,,,,,,,,,,,,504.7240571999864,504.7240571999864,505.2245369000011,,,,,,11,004,21,Male,2023-05-02_17h27.51.461,face_recognition_ERP_protocol,2022.2.5,59.954842011145466,
Celebs/17_Margot_Robbie_0014.jpg,non_target,3,0,3,0,0,50,50,114,,,,,,,,,,,,,505.7251302000077,505.7251302000077,506.2256808000093,,,,,,11,004,21,Male,2023-05-02_17h27.51.461,face_recognition_ERP_protocol,2022.2.5,59.954842011145466,
Celebs/14_Emma_Watson_0004.jpg,non_target,3,0,3,0,0,51,51,14,,,,,,,,,,,,,506.7263643000042,506.7263643000042,507.2267930000089,,,,,,11,004,21,Male,2023-05-02_17h27.51.461,face_recognition_ERP_protocol,2022.2.5,59.954842011145466,
Celebs/14_Emma_Watson_0005.jpg,non_target,3,0,3,0,0,52,52,26,,,,,,,,,,,,,507.72736799999257,507.72736799999257,508.2279362999834,,,,,,11,004,21,Male,2023-05-02_17h27.51.461,face_recognition_ERP_protocol,2022.2.5,59.954842011145466,
Celebs/22_Emma_Watson_0003.jpg,non_target,3,0,3,0,0,53,53,91,,,,,,,,,,,,,508.72864230000414,508.72864230000414,509.229078400007,,,,,,11,004,21,Male,2023-05-02_17h27.51.461,face_recognition_ERP_protocol,2022.2.5,59.954842011145466,
Celebs/17_Daniel_Radcliffe_0007.jpg,target,3,0,3,0,0,54,54,19,,,,,,,,,,,,,509.72975070000393,509.72975070000393,510.2302720999869,,,,,,11,004,21,Male,2023-05-02_17h27.51.461,face_recognition_ERP_protocol,2022.2.5,59.954842011145466,
Celebs/20_Margot_Robbie_0006.jpg,non_target,3,0,3,0,0,55,55,35,,,,,,,,,,,,,510.730893800006,510.730893800006,511.23138370001107,,,,,,11,004,21,Male,2023-05-02_17h27.51.461,face_recognition_ERP_protocol,2022.2.5,59.954842011145466,
Celebs/22_Margot_Robbie_0010.jpg,non_target,3,0,3,0,0,56,56,18,,,,,,,,,,,,,511.73207969998475,511.73207969998475,512.2324922000116,,,,,,11,004,21,Male,2023-05-02_17h27.51.461,face_recognition_ERP_protocol,2022.2.5,59.954842011145466,
Celebs/29_Scarlett_Johansson_0010.jpg,non_target,3,0,3,0,0,57,57,85,,,,,,,,,,,,,512.7331997999863,512.7331997999863,513.2336282999895,,,,,,11,004,21,Male,2023-05-02_17h27.51.461,face_recognition_ERP_protocol,2022.2.5,59.954842011145466,
Celebs/45_Will_Smith_0010.jpg,non_target,3,0,3,0,0,58,58,69,,,,,,,,,,,,,513.7343416000076,513.7343416000076,514.2347383000015,,,,,,11,004,21,Male,2023-05-02_17h27.51.461,face_recognition_ERP_protocol,2022.2.5,59.954842011145466,
Celebs/32_Jim_Parsons_0018.jpg,non_target,3,0,3,0,0,59,59,46,,,,,,,,,,,,,514.7354920000071,514.7354920000071,515.2359536000004,,,,,,11,004,21,Male,2023-05-02_17h27.51.461,face_recognition_ERP_protocol,2022.2.5,59.954842011145466,
Celebs/21_Emma_Stone_0002.jpg,non_target,3,0,3,0,0,60,60,103,,,,,,,,,,,,,515.736754099984,515.736754099984,516.2203663999971,,,,,,11,004,21,Male,2023-05-02_17h27.51.461,face_recognition_ERP_protocol,2022.2.5,59.954842011145466,
Celebs/31_Neil_Patrick_Harris_0008.jpg,non_target,3,0,3,0,0,61,61,99,,,,,,,,,,,,,516.7210120999953,516.7210120999953,517.2214103000006,,,,,,11,004,21,Male,2023-05-02_17h27.51.461,face_recognition_ERP_protocol,2022.2.5,59.954842011145466,
Celebs/23_Daniel_Radcliffe_0019.jpg,target,3,0,3,0,0,62,62,6,,,,,,,,,,,,,517.7222527000122,517.7222527000122,518.2225413999986,,,,,,11,004,21,Male,2023-05-02_17h27.51.461,face_recognition_ERP_protocol,2022.2.5,59.954842011145466,
Celebs/39_Jim_Parsons_0001.jpg,non_target,3,0,3,0,0,63,63,49,,,,,,,,,,,,,518.7231898999889,518.7231898999889,519.2236927000049,,,,,,11,004,21,Male,2023-05-02_17h27.51.461,face_recognition_ERP_protocol,2022.2.5,59.954842011145466,
