image,stimulus,trial_block.thisRepN,trial_block.thisTrialN,trial_block.thisN,trial_block.thisIndex,trials.thisRepN,trials.thisTrialN,trials.thisN,trials.thisIndex,welcome_text.started,welcome_text.stopped,instructions_text.started,spacebar_key.started,spacebar_key.keys,spacebar_key.rt,eye_text.started,eye_text.stopped,text.started,text.stopped,closedEyes_text.started,beep.started,closedEyes_text.stopped,trialImage.started,polygon.started,blank_text.started,trialBlockText.started,new_trialblock.started,new_trialblock.keys,new_trialblock.rt,blank_text.stopped,goodbye_text.started,participant,session,age,gender,date,expName,psychopyVersion,frameRate,
,,,,,,,,,,71.43901289999485,73.4402548999933,73.4402548999933,73.4402548999933,space,29.258481800032314,,,,,,,,,,,,,,,,,1,003,21,Deitado,2023-06-17_11h59.25.654,face_recognition_ERP_protocol,2022.2.5,60.09200085778801,
Celebs/50_Jackie_Chan_0014.jpg,non_target,0,0,0,0,0,0,0,38,,,,,,,102.72235519997776,117.7216942999803,117.7216942999803,132.721696099994,132.721696099994,147.7214021199994,147.7215612999862,147.8226906999771,147.8226906999771,148.25538569997298,,,,,,,1,003,21,Deitado,2023-06-17_11h59.25.654,face_recognition_ERP_protocol,2022.2.5,60.09200085778801,
Celebs/18_Daniel_Radcliffe_0007.jpg,target,0,0,0,0,0,1,1,81,,,,,,,,,,,,,,148.74158109998098,148.74158109998098,149.23979899997357,,,,,,,1,003,21,Deitado,2023-06-17_11h59.25.654,face_recognition_ERP_protocol,2022.2.5,60.09200085778801,
Celebs/47_Johnny_Depp_0004.jpg,non_target,0,0,0,0,0,2,2,76,,,,,,,,,,,,,,149.7429258999764,149.7429258999764,150.2408736999787,,,,,,,1,003,21,Deitado,2023-06-17_11h59.25.654,face_recognition_ERP_protocol,2022.2.5,60.09200085778801,
Celebs/37_Neil_Patrick_Harris_0010.jpg,non_target,0,0,0,0,0,3,3,93,,,,,,,,,,,,,,150.75583339997684,150.75583339997684,151.2419972999778,,,,,,,1,003,21,Deitado,2023-06-17_11h59.25.654,face_recognition_ERP_protocol,2022.2.5,60.09200085778801,
Celebs/22_Emma_Watson_0010.jpg,non_target,0,0,0,0,0,4,4,11,,,,,,,,,,,,,,151.756641999993,151.756641999993,152.24312839997583,,,,,,,1,003,21,Deitado,2023-06-17_11h59.25.654,face_recognition_ERP_protocol,2022.2.5,60.09200085778801,
Celebs/32_Jim_Parsons_0010.jpg,non_target,0,0,0,0,0,5,5,98,,,,,,,,,,,,,,152.7602113999892,152.7602113999892,153.24418259999948,,,,,,,1,003,21,Deitado,2023-06-17_11h59.25.654,face_recognition_ERP_protocol,2022.2.5,60.09200085778801,
Celebs/43_Will_Smith_0010.jpg,non_target,0,0,0,0,0,6,6,22,,,,,,,,,,,,,,153.74721499998122,153.74721499998122,154.24528119998286,,,,,,,1,003,21,Deitado,2023-06-17_11h59.25.654,face_recognition_ERP_protocol,2022.2.5,60.09200085778801,
Celebs/32_Jim_Parsons_0016.jpg,non_target,0,0,0,0,0,7,7,102,,,,,,,,,,,,,,154.75524209998548,154.75524209998548,155.2463014999812,,,,,,,1,003,21,Deitado,2023-06-17_11h59.25.654,face_recognition_ERP_protocol,2022.2.5,60.09200085778801,
Celebs/20_Margot_Robbie_0006.jpg,non_target,0,0,0,0,0,8,8,35,,,,,,,,,,,,,,155.78040829999372,155.78040829999372,156.2471901999961,,,,,,,1,003,21,Deitado,2023-06-17_11h59.25.654,face_recognition_ERP_protocol,2022.2.5,60.09200085778801,
Celebs/24_Scarlett_Johansson_0011.jpg,non_target,0,0,0,0,0,9,9,100,,,,,,,,,,,,,,156.7622343999974,156.7622343999974,157.2487430999754,,,,,,,1,003,21,Deitado,2023-06-17_11h59.25.654,face_recognition_ERP_protocol,2022.2.5,60.09200085778801,
Celebs/23_Daniel_Radcliffe_0019.jpg,target,0,0,0,0,0,10,10,6,,,,,,,,,,,,,,157.75039269999252,157.75039269999252,158.24947189999511,,,,,,,1,003,21,Deitado,2023-06-17_11h59.25.654,face_recognition_ERP_protocol,2022.2.5,60.09200085778801,
Celebs/21_Daniel_Radcliffe_0008.jpg,target,0,0,0,0,0,11,11,16,,,,,,,,,,,,,,158.76681579998694,158.76681579998694,159.2508221999742,,,,,,,1,003,21,Deitado,2023-06-17_11h59.25.654,face_recognition_ERP_protocol,2022.2.5,60.09200085778801,
Celebs/39_Neil_Patrick_Harris_0010.jpg,non_target,0,0,0,0,0,12,12,94,,,,,,,,,,,,,,159.7533512999944,159.7533512999944,160.25181099999463,,,,,,,1,003,21,Deitado,2023-06-17_11h59.25.654,face_recognition_ERP_protocol,2022.2.5,60.09200085778801,
Celebs/21_Emma_Stone_0002.jpg,non_target,0,0,0,0,0,13,13,103,,,,,,,,,,,,,,160.7548427999718,160.7548427999718,161.2528759999841,,,,,,,1,003,21,Deitado,2023-06-17_11h59.25.654,face_recognition_ERP_protocol,2022.2.5,60.09200085778801,
Celebs/17_Margot_Robbie_0014.jpg,non_target,0,0,0,0,0,14,14,114,,,,,,,,,,,,,,161.7660324999888,161.7660324999888,162.25394909997704,,,,,,,1,003,21,Deitado,2023-06-17_11h59.25.654,face_recognition_ERP_protocol,2022.2.5,60.09200085778801,
Celebs/21_Scarlett_Johansson_0007.jpg,non_target,0,0,0,0,0,15,15,118,,,,,,,,,,,,,,162.76871619999292,162.76871619999292,163.25507469999138,,,,,,,1,003,21,Deitado,2023-06-17_11h59.25.654,face_recognition_ERP_protocol,2022.2.5,60.09200085778801,
Celebs/44_Will_Smith_0007.jpg,non_target,0,0,0,0,0,16,16,65,,,,,,,,,,,,,,163.7700657999958,163.7700657999958,164.23949759997777,,,,,,,1,003,21,Deitado,2023-06-17_11h59.25.654,face_recognition_ERP_protocol,2022.2.5,60.09200085778801,
Celebs/45_Will_Smith_0014.jpg,non_target,0,0,0,0,0,17,17,59,,,,,,,,,,,,,,164.7544197999814,164.7544197999814,165.2405815999955,,,,,,,1,003,21,Deitado,2023-06-17_11h59.25.654,face_recognition_ERP_protocol,2022.2.5,60.09200085778801,
Celebs/21_Daniel_Radcliffe_0009.jpg,target,0,0,0,0,0,18,18,83,,,,,,,,,,,,,,165.74337939999532,165.74337939999532,166.24153819997446,,,,,,,1,003,21,Deitado,2023-06-17_11h59.25.654,face_recognition_ERP_protocol,2022.2.5,60.09200085778801,
Celebs/40_Jim_Parsons_0004.jpg,non_target,0,0,0,0,0,19,19,73,,,,,,,,,,,,,,166.75609629999963,166.75609629999963,167.24274629997672,,,,,,,1,003,21,Deitado,2023-06-17_11h59.25.654,face_recognition_ERP_protocol,2022.2.5,60.09200085778801,
Celebs/16_Emma_Stone_0008.jpg,non_target,0,0,0,0,0,20,20,48,,,,,,,,,,,,,,167.74652079999214,167.74652079999214,168.24385119997896,,,,,,,1,003,21,Deitado,2023-06-17_11h59.25.654,face_recognition_ERP_protocol,2022.2.5,60.09200085778801,
Celebs/38_Will_Smith_0013.jpg,non_target,0,0,0,0,0,21,21,13,,,,,,,,,,,,,,168.76070339998114,168.76070339998114,169.24499549999018,,,,,,,1,003,21,Deitado,2023-06-17_11h59.25.654,face_recognition_ERP_protocol,2022.2.5,60.09200085778801,
Celebs/39_Jim_Parsons_0008.jpg,non_target,0,0,0,0,0,22,22,89,,,,,,,,,,,,,,169.7570088999928,169.7570088999928,170.24607029999606,,,,,,,1,003,21,Deitado,2023-06-17_11h59.25.654,face_recognition_ERP_protocol,2022.2.5,60.09200085778801,
Celebs/18_Emma_Watson_0004.jpg,non_target,0,0,0,0,0,23,23,75,,,,,,,,,,,,,,170.75274899997748,170.75274899997748,171.24730089999503,,,,,,,1,003,21,Deitado,2023-06-17_11h59.25.654,face_recognition_ERP_protocol,2022.2.5,60.09200085778801,
Celebs/45_Will_Smith_0010.jpg,non_target,0,0,0,0,0,24,24,69,,,,,,,,,,,,,,171.75309199999901,171.75309199999901,172.2483764999779,,,,,,,1,003,21,Deitado,2023-06-17_11h59.25.654,face_recognition_ERP_protocol,2022.2.5,60.09200085778801,
Celebs/28_Scarlett_Johansson_0005.jpg,non_target,0,0,0,0,0,25,25,50,,,,,,,,,,,,,,172.76180599999498,172.76180599999498,173.24935339999502,,,,,,,1,003,21,Deitado,2023-06-17_11h59.25.654,face_recognition_ERP_protocol,2022.2.5,60.09200085778801,
Celebs/42_Will_Smith_0012.jpg,non_target,0,0,0,0,0,26,26,64,,,,,,,,,,,,,,173.76450119999936,173.76450119999936,174.25042009999743,,,,,,,1,003,21,Deitado,2023-06-17_11h59.25.654,face_recognition_ERP_protocol,2022.2.5,60.09200085778801,
Celebs/34_Neil_Patrick_Harris_0007.jpg,non_target,0,0,0,0,0,27,27,117,,,,,,,,,,,,,,174.7684212999884,174.7684212999884,175.2515008999908,,,,,,,1,003,21,Deitado,2023-06-17_11h59.25.654,face_recognition_ERP_protocol,2022.2.5,60.09200085778801,
Celebs/26_Scarlett_Johansson_0003.jpg,non_target,0,0,0,0,0,28,28,105,,,,,,,,,,,,,,175.75415189997875,175.75415189997875,176.2526226999762,,,,,,,1,003,21,Deitado,2023-06-17_11h59.25.654,face_recognition_ERP_protocol,2022.2.5,60.09200085778801,
Celebs/37_Neil_Patrick_Harris_0014.jpg,non_target,0,0,0,0,0,29,29,37,,,,,,,,,,,,,,176.76694029997452,176.76694029997452,177.25375659999554,,,,,,,1,003,21,Deitado,2023-06-17_11h59.25.654,face_recognition_ERP_protocol,2022.2.5,60.09200085778801,
Celebs/24_Daniel_Radcliffe_0017.jpg,target,0,0,0,0,0,30,30,71,,,,,,,,,,,,,,177.75674839998828,177.75674839998828,178.25485899997875,,,,,,,1,003,21,Deitado,2023-06-17_11h59.25.654,face_recognition_ERP_protocol,2022.2.5,60.09200085778801,
Celebs/50_Johnny_Depp_0018.jpg,non_target,0,0,0,0,0,31,31,24,,,,,,,,,,,,,,178.77103849998093,178.77103849998093,179.2557692999835,,,,,,,1,003,21,Deitado,2023-06-17_11h59.25.654,face_recognition_ERP_protocol,2022.2.5,60.09200085778801,
Celebs/55_Jackie_Chan_0003.jpg,non_target,0,0,0,0,0,32,32,29,,,,,,,,,,,,,,179.7562952999724,179.7562952999724,180.24021839999477,,,,,,,1,003,21,Deitado,2023-06-17_11h59.25.654,face_recognition_ERP_protocol,2022.2.5,60.09200085778801,
Celebs/16_Emma_Stone_0014.jpg,non_target,0,0,0,0,0,33,33,40,,,,,,,,,,,,,,180.74212629999965,180.74212629999965,181.24134189999313,,,,,,,1,003,21,Deitado,2023-06-17_11h59.25.654,face_recognition_ERP_protocol,2022.2.5,60.09200085778801,
Celebs/34_Neil_Patrick_Harris_0004.jpg,non_target,0,0,0,0,0,34,34,104,,,,,,,,,,,,,,181.74427989998367,181.74427989998367,182.24242979998235,,,,,,,1,003,21,Deitado,2023-06-17_11h59.25.654,face_recognition_ERP_protocol,2022.2.5,60.09200085778801,
Celebs/14_Emma_Watson_0015.jpg,non_target,0,0,0,0,0,35,35,56,,,,,,,,,,,,,,182.7612229999795,182.7612229999795,183.24358039998333,,,,,,,1,003,21,Deitado,2023-06-17_11h59.25.654,face_recognition_ERP_protocol,2022.2.5,60.09200085778801,
Celebs/23_Daniel_Radcliffe_0010.jpg,target,0,0,0,0,0,36,36,15,,,,,,,,,,,,,,183.7497057999717,183.7497057999717,184.2446150999749,,,,,,,1,003,21,Deitado,2023-06-17_11h59.25.654,face_recognition_ERP_protocol,2022.2.5,60.09200085778801,
Celebs/57_Jackie_Chan_0010.jpg,non_target,0,0,0,0,0,37,37,62,,,,,,,,,,,,,,184.76081729997532,184.76081729997532,185.24577799998224,,,,,,,1,003,21,Deitado,2023-06-17_11h59.25.654,face_recognition_ERP_protocol,2022.2.5,60.09200085778801,
Celebs/27_Scarlett_Johansson_0012.jpg,non_target,0,0,0,0,0,38,38,78,,,,,,,,,,,,,,185.7632953999855,185.7632953999855,186.246856999991,,,,,,,1,003,21,Deitado,2023-06-17_11h59.25.654,face_recognition_ERP_protocol,2022.2.5,60.09200085778801,
Celebs/52_Jackie_Chan_0002.jpg,non_target,0,0,0,0,0,39,39,68,,,,,,,,,,,,,,186.7533354999905,186.7533354999905,187.24792429999798,,,,,,,1,003,21,Deitado,2023-06-17_11h59.25.654,face_recognition_ERP_protocol,2022.2.5,60.09200085778801,
Celebs/29_Scarlett_Johansson_0016.jpg,non_target,0,0,0,0,0,40,40,2,,,,,,,,,,,,,,187.75004819998867,187.75004819998867,188.2489096999925,,,,,,,1,003,21,Deitado,2023-06-17_11h59.25.654,face_recognition_ERP_protocol,2022.2.5,60.09200085778801,
Celebs/25_Scarlett_Johansson_0010.jpg,non_target,0,0,0,0,0,41,41,32,,,,,,,,,,,,,,188.76948349998565,188.76948349998565,189.2501210999908,,,,,,,1,003,21,Deitado,2023-06-17_11h59.25.654,face_recognition_ERP_protocol,2022.2.5,60.09200085778801,
Celebs/21_Daniel_Radcliffe_0002.jpg,target,0,0,0,0,0,42,42,60,,,,,,,,,,,,,,189.7816825999762,189.7816825999762,190.2515155999863,,,,,,,1,003,21,Deitado,2023-06-17_11h59.25.654,face_recognition_ERP_protocol,2022.2.5,60.09200085778801,
Celebs/50_Jackie_Chan_0012.jpg,non_target,0,0,0,0,0,43,43,43,,,,,,,,,,,,,,190.76242519999505,190.76242519999505,191.25237939998624,,,,,,,1,003,21,Deitado,2023-06-17_11h59.25.654,face_recognition_ERP_protocol,2022.2.5,60.09200085778801,
Celebs/21_Emma_Watson_0004.jpg,non_target,0,0,0,0,0,44,44,21,,,,,,,,,,,,,,191.76577799997176,191.76577799997176,192.25351769998088,,,,,,,1,003,21,Deitado,2023-06-17_11h59.25.654,face_recognition_ERP_protocol,2022.2.5,60.09200085778801,
Celebs/22_Emma_Watson_0003.jpg,non_target,0,0,0,0,0,45,45,91,,,,,,,,,,,,,,192.75485199998366,192.75485199998366,193.2542942999862,,,,,,,1,003,21,Deitado,2023-06-17_11h59.25.654,face_recognition_ERP_protocol,2022.2.5,60.09200085778801,
Celebs/49_Johnny_Depp_0013.jpg,non_target,0,0,0,0,0,46,46,33,,,,,,,,,,,,,,193.769447699975,193.769447699975,194.255955599976,,,,,,,1,003,21,Deitado,2023-06-17_11h59.25.654,face_recognition_ERP_protocol,2022.2.5,60.09200085778801,
Celebs/16_Emma_Stone_0012.jpg,non_target,0,0,0,0,0,47,47,70,,,,,,,,,,,,,,194.74208949998138,194.74208949998138,195.2396534999716,,,,,,,1,003,21,Deitado,2023-06-17_11h59.25.654,face_recognition_ERP_protocol,2022.2.5,60.09200085778801,
Celebs/40_Jim_Parsons_0015.jpg,non_target,0,0,0,0,0,48,48,45,,,,,,,,,,,,,,195.74130789999617,195.74130789999617,196.24107139999978,,,,,,,1,003,21,Deitado,2023-06-17_11h59.25.654,face_recognition_ERP_protocol,2022.2.5,60.09200085778801,
Celebs/17_Daniel_Radcliffe_0007.jpg,target,0,0,0,0,0,49,49,19,,,,,,,,,,,,,,196.75878249999369,196.75878249999369,197.24239049997414,,,,,,,1,003,21,Deitado,2023-06-17_11h59.25.654,face_recognition_ERP_protocol,2022.2.5,60.09200085778801,
Celebs/22_Emma_Watson_0001.jpg,non_target,0,0,0,0,0,50,50,58,,,,,,,,,,,,,,197.7455193999922,197.7455193999922,198.24317419997533,,,,,,,1,003,21,Deitado,2023-06-17_11h59.25.654,face_recognition_ERP_protocol,2022.2.5,60.09200085778801,
Celebs/14_Emma_Watson_0005.jpg,non_target,0,0,0,0,0,51,51,26,,,,,,,,,,,,,,198.75652369999443,198.75652369999443,199.24474439999904,,,,,,,1,003,21,Deitado,2023-06-17_11h59.25.654,face_recognition_ERP_protocol,2022.2.5,60.09200085778801,
Celebs/20_Scarlett_Johansson_0011.jpg,non_target,0,0,0,0,0,52,52,109,,,,,,,,,,,,,,199.74711799999932,199.74711799999932,200.24608489999082,,,,,,,1,003,21,Deitado,2023-06-17_11h59.25.654,face_recognition_ERP_protocol,2022.2.5,60.09200085778801,
Celebs/39_Jim_Parsons_0010.jpg,non_target,0,0,0,0,0,53,53,0,,,,,,,,,,,,,,200.75758059998043,200.75758059998043,201.24739629999385,,,,,,,1,003,21,Deitado,2023-06-17_11h59.25.654,face_recognition_ERP_protocol,2022.2.5,60.09200085778801,
Celebs/14_Emma_Watson_0013.jpg,non_target,0,0,0,0,0,54,54,20,,,,,,,,,,,,,,201.7480817999749,201.7480817999749,202.24784189998172,,,,,,,1,003,21,Deitado,2023-06-17_11h59.25.654,face_recognition_ERP_protocol,2022.2.5,60.09200085778801,
Celebs/23_Emma_Stone_0014.jpg,non_target,0,0,0,0,0,55,55,12,,,,,,,,,,,,,,202.75829469997552,202.75829469997552,203.2486499999941,,,,,,,1,003,21,Deitado,2023-06-17_11h59.25.654,face_recognition_ERP_protocol,2022.2.5,60.09200085778801,
Celebs/51_Jackie_Chan_0006.jpg,non_target,0,0,0,0,0,56,56,97,,,,,,,,,,,,,,203.76396569999633,203.76396569999633,204.25001879999763,,,,,,,1,003,21,Deitado,2023-06-17_11h59.25.654,face_recognition_ERP_protocol,2022.2.5,60.09200085778801,
Celebs/57_Jackie_Chan_0008.jpg,non_target,0,0,0,0,0,57,57,72,,,,,,,,,,,,,,204.75390979999793,204.75390979999793,205.25124359998154,,,,,,,1,003,21,Deitado,2023-06-17_11h59.25.654,face_recognition_ERP_protocol,2022.2.5,60.09200085778801,
Celebs/48_Johnny_Depp_0005.jpg,non_target,0,0,0,0,0,58,58,54,,,,,,,,,,,,,,205.75307939999038,205.75307939999038,206.25396949998685,,,,,,,1,003,21,Deitado,2023-06-17_11h59.25.654,face_recognition_ERP_protocol,2022.2.5,60.09200085778801,
Celebs/43_Will_Smith_0006.jpg,non_target,0,0,0,0,0,59,59,61,,,,,,,,,,,,,,206.7692054999934,206.7692054999934,207.25327249997645,,,,,,,1,003,21,Deitado,2023-06-17_11h59.25.654,face_recognition_ERP_protocol,2022.2.5,60.09200085778801,
Celebs/22_Emma_Stone_0013.jpg,non_target,0,0,0,0,0,60,60,1,,,,,,,,,,,,,,207.76677109999582,207.76677109999582,208.25435789997573,,,,,,,1,003,21,Deitado,2023-06-17_11h59.25.654,face_recognition_ERP_protocol,2022.2.5,60.09200085778801,
Celebs/19_Emma_Stone_0006.jpg,non_target,0,0,0,0,0,61,61,66,,,,,,,,,,,,,,208.76972339997883,208.76972339997883,209.25521599999047,,,,,,,1,003,21,Deitado,2023-06-17_11h59.25.654,face_recognition_ERP_protocol,2022.2.5,60.09200085778801,
Celebs/14_Emma_Watson_0004.jpg,non_target,0,0,0,0,0,62,62,14,,,,,,,,,,,,,,209.74535099999048,209.74535099999048,210.23955169998226,,,,,,,1,003,21,Deitado,2023-06-17_11h59.25.654,face_recognition_ERP_protocol,2022.2.5,60.09200085778801,
Celebs/18_Daniel_Radcliffe_0002.jpg,target,0,0,0,0,0,63,63,119,,,,,,,,,,,,,,210.75714979998884,210.75714979998884,211.2410337999754,,,,,,,1,003,21,Deitado,2023-06-17_11h59.25.654,face_recognition_ERP_protocol,2022.2.5,60.09200085778801,
Celebs/40_Will_Smith_0012.jpg,non_target,0,0,0,0,0,64,64,110,,,,,,,,,,,,,,211.7478183999774,211.7478183999774,212.2416575999814,,,,,,,1,003,21,Deitado,2023-06-17_11h59.25.654,face_recognition_ERP_protocol,2022.2.5,60.09200085778801,
Celebs/19_Margot_Robbie_0004.jpg,non_target,0,0,0,0,0,65,65,42,,,,,,,,,,,,,,212.7476354999817,212.7476354999817,213.2428267999785,,,,,,,1,003,21,Deitado,2023-06-17_11h59.25.654,face_recognition_ERP_protocol,2022.2.5,60.09200085778801,
Celebs/50_Johnny_Depp_0008.jpg,non_target,0,0,0,0,0,66,66,84,,,,,,,,,,,,,,213.74476849997882,213.74476849997882,214.24439659999916,,,,,,,1,003,21,Deitado,2023-06-17_11h59.25.654,face_recognition_ERP_protocol,2022.2.5,60.09200085778801,
Celebs/22_Scarlett_Johansson_0005.jpg,non_target,0,0,0,0,0,67,67,44,,,,,,,,,,,,,,214.75064089999069,214.75064089999069,215.24527909999597,,,,,,,1,003,21,Deitado,2023-06-17_11h59.25.654,face_recognition_ERP_protocol,2022.2.5,60.09200085778801,
Celebs/37_Will_Smith_0015.jpg,non_target,0,0,0,0,0,68,68,113,,,,,,,,,,,,,,215.74684239999624,215.74684239999624,216.24640049997834,,,,,,,1,003,21,Deitado,2023-06-17_11h59.25.654,face_recognition_ERP_protocol,2022.2.5,60.09200085778801,
Celebs/39_Jim_Parsons_0001.jpg,non_target,0,0,0,0,0,69,69,49,,,,,,,,,,,,,,216.76409119999153,216.76409119999153,217.247901499999,,,,,,,1,003,21,Deitado,2023-06-17_11h59.25.654,face_recognition_ERP_protocol,2022.2.5,60.09200085778801,
Celebs/20_Emma_Watson_0007.jpg,non_target,0,0,0,0,0,70,70,96,,,,,,,,,,,,,,217.75377599999774,217.75377599999774,218.24855469999602,,,,,,,1,003,21,Deitado,2023-06-17_11h59.25.654,face_recognition_ERP_protocol,2022.2.5,60.09200085778801,
Celebs/17_Margot_Robbie_0012.jpg,non_target,0,0,0,0,0,71,71,67,,,,,,,,,,,,,,218.76592169998912,218.76592169998912,219.25006249998114,,,,,,,1,003,21,Deitado,2023-06-17_11h59.25.654,face_recognition_ERP_protocol,2022.2.5,60.09200085778801,
Celebs/15_Margot_Robbie_0012.jpg,non_target,0,0,0,0,0,72,72,82,,,,,,,,,,,,,,219.76649679997354,219.76649679997354,220.25137479999103,,,,,,,1,003,21,Deitado,2023-06-17_11h59.25.654,face_recognition_ERP_protocol,2022.2.5,60.09200085778801,
Celebs/26_Scarlett_Johansson_0008.jpg,non_target,0,0,0,0,0,73,73,47,,,,,,,,,,,,,,220.7530578999722,220.7530578999722,221.25242489998345,,,,,,,1,003,21,Deitado,2023-06-17_11h59.25.654,face_recognition_ERP_protocol,2022.2.5,60.09200085778801,
Celebs/50_Johnny_Depp_0004.jpg,non_target,0,0,0,0,0,74,74,39,,,,,,,,,,,,,,221.76631349997479,221.76631349997479,222.25283829998807,,,,,,,1,003,21,Deitado,2023-06-17_11h59.25.654,face_recognition_ERP_protocol,2022.2.5,60.09200085778801,
Celebs/45_Johnny_Depp_0003.jpg,non_target,0,0,0,0,0,75,75,108,,,,,,,,,,,,,,222.76668669999344,222.76668669999344,223.2544562999974,,,,,,,1,003,21,Deitado,2023-06-17_11h59.25.654,face_recognition_ERP_protocol,2022.2.5,60.09200085778801,
Celebs/31_Neil_Patrick_Harris_0008.jpg,non_target,0,0,0,0,0,76,76,99,,,,,,,,,,,,,,223.76816449998296,223.76816449998296,224.25486319998163,,,,,,,1,003,21,Deitado,2023-06-17_11h59.25.654,face_recognition_ERP_protocol,2022.2.5,60.09200085778801,
Celebs/38_Jim_Parsons_0003.jpg,non_target,0,0,0,0,0,77,77,53,,,,,,,,,,,,,,224.76087279999047,224.76087279999047,225.23952849998022,,,,,,,1,003,21,Deitado,2023-06-17_11h59.25.654,face_recognition_ERP_protocol,2022.2.5,60.09200085778801,
Celebs/43_Will_Smith_0007.jpg,non_target,0,0,0,0,0,78,78,74,,,,,,,,,,,,,,225.7540557999746,225.7540557999746,226.2403908999986,,,,,,,1,003,21,Deitado,2023-06-17_11h59.25.654,face_recognition_ERP_protocol,2022.2.5,60.09200085778801,
Celebs/24_Emma_Stone_0015.jpg,non_target,0,0,0,0,0,79,79,57,,,,,,,,,,,,,,226.7550955999759,226.7550955999759,227.24135319999186,,,,,,,1,003,21,Deitado,2023-06-17_11h59.25.654,face_recognition_ERP_protocol,2022.2.5,60.09200085778801,
Celebs/32_Jim_Parsons_0018.jpg,non_target,0,0,0,0,0,80,80,46,,,,,,,,,,,,,,227.74315219998243,227.74315219998243,228.2426332999894,,,,,,,1,003,21,Deitado,2023-06-17_11h59.25.654,face_recognition_ERP_protocol,2022.2.5,60.09200085778801,
Celebs/33_Jim_Parsons_0011.jpg,non_target,0,0,0,0,0,81,81,34,,,,,,,,,,,,,,228.74504169999273,228.74504169999273,229.2437227999908,,,,,,,1,003,21,Deitado,2023-06-17_11h59.25.654,face_recognition_ERP_protocol,2022.2.5,60.09200085778801,
Celebs/36_Neil_Patrick_Harris_0007.jpg,non_target,0,0,0,0,0,82,82,5,,,,,,,,,,,,,,229.76105789997382,229.76105789997382,230.24472959997365,,,,,,,1,003,21,Deitado,2023-06-17_11h59.25.654,face_recognition_ERP_protocol,2022.2.5,60.09200085778801,
Celebs/24_Scarlett_Johansson_0001.jpg,non_target,0,0,0,0,0,83,83,10,,,,,,,,,,,,,,230.75870799997938,230.75870799997938,231.2457731999748,,,,,,,1,003,21,Deitado,2023-06-17_11h59.25.654,face_recognition_ERP_protocol,2022.2.5,60.09200085778801,
Celebs/18_Daniel_Radcliffe_0008.jpg,target,0,0,0,0,0,84,84,28,,,,,,,,,,,,,,231.75078019997454,231.75078019997454,232.2470124999818,,,,,,,1,003,21,Deitado,2023-06-17_11h59.25.654,face_recognition_ERP_protocol,2022.2.5,60.09200085778801,
Celebs/39_Jim_Parsons_0004.jpg,non_target,0,0,0,0,0,85,85,88,,,,,,,,,,,,,,232.7509802999848,232.7509802999848,233.24800939997658,,,,,,,1,003,21,Deitado,2023-06-17_11h59.25.654,face_recognition_ERP_protocol,2022.2.5,60.09200085778801,
Celebs/21_Emma_Stone_0003.jpg,non_target,0,0,0,0,0,86,86,25,,,,,,,,,,,,,,233.75287869997555,233.75287869997555,234.2492095999769,,,,,,,1,003,21,Deitado,2023-06-17_11h59.25.654,face_recognition_ERP_protocol,2022.2.5,60.09200085778801,
Celebs/16_Emma_Stone_0010.jpg,non_target,0,0,0,0,0,87,87,95,,,,,,,,,,,,,,234.7497805999883,234.7497805999883,235.2502457999799,,,,,,,1,003,21,Deitado,2023-06-17_11h59.25.654,face_recognition_ERP_protocol,2022.2.5,60.09200085778801,
Celebs/21_Daniel_Radcliffe_0012.jpg,target,0,0,0,0,0,88,88,8,,,,,,,,,,,,,,235.76089609999326,235.76089609999326,236.25162879997515,,,,,,,1,003,21,Deitado,2023-06-17_11h59.25.654,face_recognition_ERP_protocol,2022.2.5,60.09200085778801,
Celebs/15_Margot_Robbie_0005.jpg,non_target,0,0,0,0,0,89,89,80,,,,,,,,,,,,,,236.76362679997692,236.76362679997692,237.2524821999832,,,,,,,1,003,21,Deitado,2023-06-17_11h59.25.654,face_recognition_ERP_protocol,2022.2.5,60.09200085778801,
Celebs/22_Margot_Robbie_0010.jpg,non_target,0,0,0,0,0,90,90,18,,,,,,,,,,,,,,237.7688005999953,237.7688005999953,238.25362069997936,,,,,,,1,003,21,Deitado,2023-06-17_11h59.25.654,face_recognition_ERP_protocol,2022.2.5,60.09200085778801,
Celebs/58_Jackie_Chan_0005.jpg,non_target,0,0,0,0,0,91,91,3,,,,,,,,,,,,,,238.76484789999085,238.76484789999085,239.25474879998364,,,,,,,1,003,21,Deitado,2023-06-17_11h59.25.654,face_recognition_ERP_protocol,2022.2.5,60.09200085778801,
Celebs/19_Margot_Robbie_0001.jpg,non_target,0,0,0,0,0,92,92,51,,,,,,,,,,,,,,239.7693829999771,239.7693829999771,240.25565689997165,,,,,,,1,003,21,Deitado,2023-06-17_11h59.25.654,face_recognition_ERP_protocol,2022.2.5,60.09200085778801,
Celebs/16_Margot_Robbie_0009.jpg,non_target,0,0,0,0,0,93,93,107,,,,,,,,,,,,,,240.7416425999836,240.7416425999836,241.2409608999733,,,,,,,1,003,21,Deitado,2023-06-17_11h59.25.654,face_recognition_ERP_protocol,2022.2.5,60.09200085778801,
Celebs/17_Margot_Robbie_0006.jpg,non_target,0,0,0,0,0,94,94,17,,,,,,,,,,,,,,241.75825719998102,241.75825719998102,242.24125029999414,,,,,,,1,003,21,Deitado,2023-06-17_11h59.25.654,face_recognition_ERP_protocol,2022.2.5,60.09200085778801,
Celebs/35_Neil_Patrick_Harris_0009.jpg,non_target,0,0,0,0,0,95,95,87,,,,,,,,,,,,,,242.75582869999926,242.75582869999926,243.24240969997481,,,,,,,1,003,21,Deitado,2023-06-17_11h59.25.654,face_recognition_ERP_protocol,2022.2.5,60.09200085778801,
Celebs/48_Johnny_Depp_0001.jpg,non_target,0,0,0,0,0,96,96,106,,,,,,,,,,,,,,243.7464194999775,243.7464194999775,244.2434839999769,,,,,,,1,003,21,Deitado,2023-06-17_11h59.25.654,face_recognition_ERP_protocol,2022.2.5,60.09200085778801,
Celebs/55_Jackie_Chan_0008.jpg,non_target,0,0,0,0,0,97,97,92,,,,,,,,,,,,,,244.74847059999593,244.74847059999593,245.24458299999242,,,,,,,1,003,21,Deitado,2023-06-17_11h59.25.654,face_recognition_ERP_protocol,2022.2.5,60.09200085778801,
Celebs/47_Johnny_Depp_0009.jpg,non_target,0,0,0,0,0,98,98,23,,,,,,,,,,,,,,245.75966269997298,245.75966269997298,246.2457524999918,,,,,,,1,003,21,Deitado,2023-06-17_11h59.25.654,face_recognition_ERP_protocol,2022.2.5,60.09200085778801,
Celebs/54_Jackie_Chan_0001.jpg,non_target,0,0,0,0,0,99,99,7,,,,,,,,,,,,,,246.75226919999113,246.75226919999113,247.24690889997873,,,,,,,1,003,21,Deitado,2023-06-17_11h59.25.654,face_recognition_ERP_protocol,2022.2.5,60.09200085778801,
Celebs/44_Will_Smith_0015.jpg,non_target,0,0,0,0,0,100,100,101,,,,,,,,,,,,,,247.74885419997736,247.74885419997736,248.2481001999986,,,,,,,1,003,21,Deitado,2023-06-17_11h59.25.654,face_recognition_ERP_protocol,2022.2.5,60.09200085778801,
Celebs/36_Jim_Parsons_0011.jpg,non_target,0,0,0,0,0,101,101,86,,,,,,,,,,,,,,248.7504542999959,248.7504542999959,249.24914889998036,,,,,,,1,003,21,Deitado,2023-06-17_11h59.25.654,face_recognition_ERP_protocol,2022.2.5,60.09200085778801,
Celebs/54_Jackie_Chan_0014.jpg,non_target,0,0,0,0,0,102,102,111,,,,,,,,,,,,,,249.7704051999899,249.7704051999899,250.25006539997412,,,,,,,1,003,21,Deitado,2023-06-17_11h59.25.654,face_recognition_ERP_protocol,2022.2.5,60.09200085778801,
Celebs/29_Scarlett_Johansson_0010.jpg,non_target,0,0,0,0,0,103,103,85,,,,,,,,,,,,,,250.76740859998972,250.76740859998972,251.2520687999786,,,,,,,1,003,21,Deitado,2023-06-17_11h59.25.654,face_recognition_ERP_protocol,2022.2.5,60.09200085778801,
Celebs/20_Margot_Robbie_0004.jpg,non_target,0,0,0,0,0,104,104,116,,,,,,,,,,,,,,251.754303899972,251.754303899972,252.25226349997683,,,,,,,1,003,21,Deitado,2023-06-17_11h59.25.654,face_recognition_ERP_protocol,2022.2.5,60.09200085778801,
Celebs/36_Neil_Patrick_Harris_0010.jpg,non_target,0,0,0,0,0,105,105,79,,,,,,,,,,,,,,252.75446229998488,252.75446229998488,253.25365419997252,,,,,,,1,003,21,Deitado,2023-06-17_11h59.25.654,face_recognition_ERP_protocol,2022.2.5,60.09200085778801,
Celebs/21_Margot_Robbie_0003.jpg,non_target,0,0,0,0,0,106,106,27,,,,,,,,,,,,,,253.76047359997756,253.76047359997756,254.25461059997906,,,,,,,1,003,21,Deitado,2023-06-17_11h59.25.654,face_recognition_ERP_protocol,2022.2.5,60.09200085778801,
Celebs/44_Will_Smith_0006.jpg,non_target,0,0,0,0,0,107,107,41,,,,,,,,,,,,,,254.76501429997734,254.76501429997734,255.2555915999983,,,,,,,1,003,21,Deitado,2023-06-17_11h59.25.654,face_recognition_ERP_protocol,2022.2.5,60.09200085778801,
Celebs/39_Neil_Patrick_Harris_0001.jpg,non_target,0,0,0,0,0,108,108,4,,,,,,,,,,,,,,255.75203549998696,255.75203549998696,256.23989499997697,,,,,,,1,003,21,Deitado,2023-06-17_11h59.25.654,face_recognition_ERP_protocol,2022.2.5,60.09200085778801,
Celebs/18_Emma_Stone_0016.jpg,non_target,0,0,0,0,0,109,109,52,,,,,,,,,,,,,,256.75340599997435,256.75340599997435,257.2411616999889,,,,,,,1,003,21,Deitado,2023-06-17_11h59.25.654,face_recognition_ERP_protocol,2022.2.5,60.09200085778801,
Celebs/48_Johnny_Depp_0003.jpg,non_target,0,0,0,0,0,110,110,55,,,,,,,,,,,,,,257.7521020999993,257.7521020999993,258.241927199997,,,,,,,1,003,21,Deitado,2023-06-17_11h59.25.654,face_recognition_ERP_protocol,2022.2.5,60.09200085778801,
Celebs/47_Johnny_Depp_0003.jpg,non_target,0,0,0,0,0,111,111,9,,,,,,,,,,,,,,258.754031199991,258.754031199991,259.2433020999888,,,,,,,1,003,21,Deitado,2023-06-17_11h59.25.654,face_recognition_ERP_protocol,2022.2.5,60.09200085778801,
Celebs/20_Emma_Stone_0005.jpg,non_target,0,0,0,0,0,112,112,63,,,,,,,,,,,,,,259.7540130999987,259.7540130999987,260.2442083999922,,,,,,,1,003,21,Deitado,2023-06-17_11h59.25.654,face_recognition_ERP_protocol,2022.2.5,60.09200085778801,
Celebs/23_Daniel_Radcliffe_0002.jpg,target,0,0,0,0,0,113,113,77,,,,,,,,,,,,,,260.74823359999573,260.74823359999573,261.2452526999987,,,,,,,1,003,21,Deitado,2023-06-17_11h59.25.654,face_recognition_ERP_protocol,2022.2.5,60.09200085778801,
Celebs/33_Neil_Patrick_Harris_0011.jpg,non_target,0,0,0,0,0,114,114,112,,,,,,,,,,,,,,261.74712589997216,261.74712589997216,262.24650029998156,,,,,,,1,003,21,Deitado,2023-06-17_11h59.25.654,face_recognition_ERP_protocol,2022.2.5,60.09200085778801,
Celebs/38_Neil_Patrick_Harris_0006.jpg,non_target,0,0,0,0,0,115,115,31,,,,,,,,,,,,,,262.7614224999852,262.7614224999852,263.2475730999722,,,,,,,1,003,21,Deitado,2023-06-17_11h59.25.654,face_recognition_ERP_protocol,2022.2.5,60.09200085778801,
Celebs/17_Emma_Watson_0006.jpg,non_target,0,0,0,0,0,116,116,90,,,,,,,,,,,,,,263.76102989999345,263.76102989999345,264.248494999978,,,,,,,1,003,21,Deitado,2023-06-17_11h59.25.654,face_recognition_ERP_protocol,2022.2.5,60.09200085778801,
Celebs/50_Johnny_Depp_0010.jpg,non_target,0,0,0,0,0,117,117,115,,,,,,,,,,,,,,264.7498878999904,264.7498878999904,265.24963789997855,,,,,,,1,003,21,Deitado,2023-06-17_11h59.25.654,face_recognition_ERP_protocol,2022.2.5,60.09200085778801,
Celebs/55_Jackie_Chan_0015.jpg,non_target,0,0,0,0,0,118,118,30,,,,,,,,,,,,,,265.7517942999839,265.7517942999839,266.25082109999494,,,,,,,1,003,21,Deitado,2023-06-17_11h59.25.654,face_recognition_ERP_protocol,2022.2.5,60.09200085778801,
Celebs/14_Emma_Watson_0008.jpg,non_target,0,0,0,0,0,119,119,36,,,,,,,,,,,,,,266.76325229997747,266.76325229997747,267.2518907999911,,,,,,,1,003,21,Deitado,2023-06-17_11h59.25.654,face_recognition_ERP_protocol,2022.2.5,60.09200085778801,
Celebs/39_Jim_Parsons_0008.jpg,non_target,1,0,1,0,0,0,0,89,,,,,,,,,,,,,,324.3642654999858,324.3642654999858,324.81516159998137,267.76864449999994,267.76864449999994,space,56.499591700034216,,,1,003,21,Deitado,2023-06-17_11h59.25.654,face_recognition_ERP_protocol,2022.2.5,60.09200085778801,
Celebs/49_Johnny_Depp_0013.jpg,non_target,1,0,1,0,0,1,1,33,,,,,,,,,,,,,,325.3173921999987,325.3173921999987,325.8159963999933,,,,,,,1,003,21,Deitado,2023-06-17_11h59.25.654,face_recognition_ERP_protocol,2022.2.5,60.09200085778801,
Celebs/18_Daniel_Radcliffe_0002.jpg,target,1,0,1,0,0,2,2,119,,,,,,,,,,,,,,326.3178811999969,326.3178811999969,326.81734869998763,,,,,,,1,003,21,Deitado,2023-06-17_11h59.25.654,face_recognition_ERP_protocol,2022.2.5,60.09200085778801,
Celebs/48_Johnny_Depp_0005.jpg,non_target,1,0,1,0,0,3,3,54,,,,,,,,,,,,,,327.3024813999946,327.3024813999946,327.80162769998424,,,,,,,1,003,21,Deitado,2023-06-17_11h59.25.654,face_recognition_ERP_protocol,2022.2.5,60.09200085778801,
Celebs/21_Scarlett_Johansson_0007.jpg,non_target,1,0,1,0,0,4,4,118,,,,,,,,,,,,,,328.3040139999939,328.3040139999939,328.8026706999808,,,,,,,1,003,21,Deitado,2023-06-17_11h59.25.654,face_recognition_ERP_protocol,2022.2.5,60.09200085778801,
Celebs/14_Emma_Watson_0004.jpg,non_target,1,0,1,0,0,5,5,14,,,,,,,,,,,,,,329.30520139998407,329.30520139998407,329.80377999998746,,,,,,,1,003,21,Deitado,2023-06-17_11h59.25.654,face_recognition_ERP_protocol,2022.2.5,60.09200085778801,
Celebs/22_Emma_Watson_0003.jpg,non_target,1,0,1,0,0,6,6,91,,,,,,,,,,,,,,330.3058046999795,330.3058046999795,330.8047469999874,,,,,,,1,003,21,Deitado,2023-06-17_11h59.25.654,face_recognition_ERP_protocol,2022.2.5,60.09200085778801,
Celebs/54_Jackie_Chan_0001.jpg,non_target,1,0,1,0,0,7,7,7,,,,,,,,,,,,,,331.30708989998675,331.30708989998675,331.8059927999857,,,,,,,1,003,21,Deitado,2023-06-17_11h59.25.654,face_recognition_ERP_protocol,2022.2.5,60.09200085778801,
Celebs/17_Emma_Watson_0006.jpg,non_target,1,0,1,0,0,8,8,90,,,,,,,,,,,,,,332.30657739998423,332.30657739998423,332.807078599988,,,,,,,1,003,21,Deitado,2023-06-17_11h59.25.654,face_recognition_ERP_protocol,2022.2.5,60.09200085778801,
Celebs/17_Margot_Robbie_0012.jpg,non_target,1,0,1,0,0,9,9,67,,,,,,,,,,,,,,333.30817199999,333.30817199999,333.80823429999873,,,,,,,1,003,21,Deitado,2023-06-17_11h59.25.654,face_recognition_ERP_protocol,2022.2.5,60.09200085778801,
Celebs/20_Scarlett_Johansson_0011.jpg,non_target,1,0,1,0,0,10,10,109,,,,,,,,,,,,,,334.3099310999969,334.3099310999969,334.80918559999554,,,,,,,1,003,21,Deitado,2023-06-17_11h59.25.654,face_recognition_ERP_protocol,2022.2.5,60.09200085778801,
Celebs/35_Neil_Patrick_Harris_0009.jpg,non_target,1,0,1,0,0,11,11,87,,,,,,,,,,,,,,335.31046079998487,335.31046079998487,335.81022929999745,,,,,,,1,003,21,Deitado,2023-06-17_11h59.25.654,face_recognition_ERP_protocol,2022.2.5,60.09200085778801,
Celebs/29_Scarlett_Johansson_0016.jpg,non_target,1,0,1,0,0,12,12,2,,,,,,,,,,,,,,336.311567799974,336.311567799974,336.81149369999184,,,,,,,1,003,21,Deitado,2023-06-17_11h59.25.654,face_recognition_ERP_protocol,2022.2.5,60.09200085778801,
Celebs/19_Margot_Robbie_0004.jpg,non_target,1,0,1,0,0,13,13,42,,,,,,,,,,,,,,337.3150642999972,337.3150642999972,337.8126023999939,,,,,,,1,003,21,Deitado,2023-06-17_11h59.25.654,face_recognition_ERP_protocol,2022.2.5,60.09200085778801,
Celebs/37_Neil_Patrick_Harris_0014.jpg,non_target,1,0,1,0,0,14,14,37,,,,,,,,,,,,,,338.31389859999763,338.31389859999763,338.81328769997344,,,,,,,1,003,21,Deitado,2023-06-17_11h59.25.654,face_recognition_ERP_protocol,2022.2.5,60.09200085778801,
Celebs/24_Daniel_Radcliffe_0017.jpg,target,1,0,1,0,0,15,15,71,,,,,,,,,,,,,,339.3154431999719,339.3154431999719,339.81488089999766,,,,,,,1,003,21,Deitado,2023-06-17_11h59.25.654,face_recognition_ERP_protocol,2022.2.5,60.09200085778801,
Celebs/48_Johnny_Depp_0003.jpg,non_target,1,0,1,0,0,16,16,55,,,,,,,,,,,,,,340.3164088999911,340.3164088999911,340.81562369997846,,,,,,,1,003,21,Deitado,2023-06-17_11h59.25.654,face_recognition_ERP_protocol,2022.2.5,60.09200085778801,
Celebs/18_Daniel_Radcliffe_0007.jpg,target,1,0,1,0,0,17,17,81,,,,,,,,,,,,,,341.3177913999825,341.3177913999825,341.817115199985,,,,,,,1,003,21,Deitado,2023-06-17_11h59.25.654,face_recognition_ERP_protocol,2022.2.5,60.09200085778801,
Celebs/54_Jackie_Chan_0014.jpg,non_target,1,0,1,0,0,18,18,111,,,,,,,,,,,,,,342.32212089997483,342.32212089997483,342.8011063999729,,,,,,,1,003,21,Deitado,2023-06-17_11h59.25.654,face_recognition_ERP_protocol,2022.2.5,60.09200085778801,
Celebs/37_Will_Smith_0015.jpg,non_target,1,0,1,0,0,19,19,113,,,,,,,,,,,,,,343.30368169999565,343.30368169999565,343.80247219998273,,,,,,,1,003,21,Deitado,2023-06-17_11h59.25.654,face_recognition_ERP_protocol,2022.2.5,60.09200085778801,
Celebs/14_Emma_Watson_0013.jpg,non_target,1,0,1,0,0,20,20,20,,,,,,,,,,,,,,344.30415469998843,344.30415469998843,344.8035177999991,,,,,,,1,003,21,Deitado,2023-06-17_11h59.25.654,face_recognition_ERP_protocol,2022.2.5,60.09200085778801,
Celebs/40_Jim_Parsons_0004.jpg,non_target,1,0,1,0,0,21,21,73,,,,,,,,,,,,,,345.30492309998954,345.30492309998954,345.80449640000006,,,,,,,1,003,21,Deitado,2023-06-17_11h59.25.654,face_recognition_ERP_protocol,2022.2.5,60.09200085778801,
Celebs/16_Emma_Stone_0014.jpg,non_target,1,0,1,0,0,22,22,40,,,,,,,,,,,,,,346.30619809997734,346.30619809997734,346.80558129999554,,,,,,,1,003,21,Deitado,2023-06-17_11h59.25.654,face_recognition_ERP_protocol,2022.2.5,60.09200085778801,
Celebs/20_Margot_Robbie_0006.jpg,non_target,1,0,1,0,0,23,23,35,,,,,,,,,,,,,,347.30746169999475,347.30746169999475,347.80659209997975,,,,,,,1,003,21,Deitado,2023-06-17_11h59.25.654,face_recognition_ERP_protocol,2022.2.5,60.09200085778801,
Celebs/38_Will_Smith_0013.jpg,non_target,1,0,1,0,0,24,24,13,,,,,,,,,,,,,,348.308174899983,348.308174899983,348.8077352999826,,,,,,,1,003,21,Deitado,2023-06-17_11h59.25.654,face_recognition_ERP_protocol,2022.2.5,60.09200085778801,
Celebs/45_Will_Smith_0014.jpg,non_target,1,0,1,0,0,25,25,59,,,,,,,,,,,,,,349.3101519999909,349.3101519999909,349.8088805999723,,,,,,,1,003,21,Deitado,2023-06-17_11h59.25.654,face_recognition_ERP_protocol,2022.2.5,60.09200085778801,
Celebs/44_Will_Smith_0006.jpg,non_target,1,0,1,0,0,26,26,41,,,,,,,,,,,,,,350.3107193999749,350.3107193999749,350.8101268999744,,,,,,,1,003,21,Deitado,2023-06-17_11h59.25.654,face_recognition_ERP_protocol,2022.2.5,60.09200085778801,
Celebs/26_Scarlett_Johansson_0003.jpg,non_target,1,0,1,0,0,27,27,105,,,,,,,,,,,,,,351.31195809997735,351.31195809997735,351.81095989997266,,,,,,,1,003,21,Deitado,2023-06-17_11h59.25.654,face_recognition_ERP_protocol,2022.2.5,60.09200085778801,
Celebs/21_Emma_Stone_0003.jpg,non_target,1,0,1,0,0,28,28,25,,,,,,,,,,,,,,352.31204759998946,352.31204759998946,352.8121358999924,,,,,,,1,003,21,Deitado,2023-06-17_11h59.25.654,face_recognition_ERP_protocol,2022.2.5,60.09200085778801,
Celebs/39_Jim_Parsons_0004.jpg,non_target,1,0,1,0,0,29,29,88,,,,,,,,,,,,,,353.31223469998804,353.31223469998804,353.81292129997746,,,,,,,1,003,21,Deitado,2023-06-17_11h59.25.654,face_recognition_ERP_protocol,2022.2.5,60.09200085778801,
Celebs/33_Jim_Parsons_0011.jpg,non_target,1,0,1,0,0,30,30,34,,,,,,,,,,,,,,354.31499579999945,354.31499579999945,354.81445969999186,,,,,,,1,003,21,Deitado,2023-06-17_11h59.25.654,face_recognition_ERP_protocol,2022.2.5,60.09200085778801,
Celebs/28_Scarlett_Johansson_0005.jpg,non_target,1,0,1,0,0,31,31,50,,,,,,,,,,,,,,355.31598909999593,355.31598909999593,355.8154382999928,,,,,,,1,003,21,Deitado,2023-06-17_11h59.25.654,face_recognition_ERP_protocol,2022.2.5,60.09200085778801,
Celebs/23_Emma_Stone_0014.jpg,non_target,1,0,1,0,0,32,32,12,,,,,,,,,,,,,,356.3176286999951,356.3176286999951,356.8166602999845,,,,,,,1,003,21,Deitado,2023-06-17_11h59.25.654,face_recognition_ERP_protocol,2022.2.5,60.09200085778801,
Celebs/22_Scarlett_Johansson_0005.jpg,non_target,1,0,1,0,0,33,33,44,,,,,,,,,,,,,,357.3183929999941,357.3183929999941,357.8009258999955,,,,,,,1,003,21,Deitado,2023-06-17_11h59.25.654,face_recognition_ERP_protocol,2022.2.5,60.09200085778801,
Celebs/58_Jackie_Chan_0005.jpg,non_target,1,0,1,0,0,34,34,3,,,,,,,,,,,,,,358.3014019999828,358.3014019999828,358.80173759997706,,,,,,,1,003,21,Deitado,2023-06-17_11h59.25.654,face_recognition_ERP_protocol,2022.2.5,60.09200085778801,
Celebs/50_Jackie_Chan_0012.jpg,non_target,1,0,1,0,0,35,35,43,,,,,,,,,,,,,,359.30357669998193,359.30357669998193,359.8032787999837,,,,,,,1,003,21,Deitado,2023-06-17_11h59.25.654,face_recognition_ERP_protocol,2022.2.5,60.09200085778801,
Celebs/17_Margot_Robbie_0014.jpg,non_target,1,0,1,0,0,36,36,114,,,,,,,,,,,,,,360.307227399986,360.307227399986,360.80416989998776,,,,,,,1,003,21,Deitado,2023-06-17_11h59.25.654,face_recognition_ERP_protocol,2022.2.5,60.09200085778801,
Celebs/44_Will_Smith_0015.jpg,non_target,1,0,1,0,0,37,37,101,,,,,,,,,,,,,,361.3043925999955,361.3043925999955,361.8054198999889,,,,,,,1,003,21,Deitado,2023-06-17_11h59.25.654,face_recognition_ERP_protocol,2022.2.5,60.09200085778801,
Celebs/32_Jim_Parsons_0018.jpg,non_target,1,0,1,0,0,38,38,46,,,,,,,,,,,,,,362.3050905999844,362.3050905999844,362.8063213999849,,,,,,,1,003,21,Deitado,2023-06-17_11h59.25.654,face_recognition_ERP_protocol,2022.2.5,60.09200085778801,
Celebs/17_Margot_Robbie_0006.jpg,non_target,1,0,1,0,0,39,39,17,,,,,,,,,,,,,,363.3083364999911,363.3083364999911,363.80749299997115,,,,,,,1,003,21,Deitado,2023-06-17_11h59.25.654,face_recognition_ERP_protocol,2022.2.5,60.09200085778801,
Celebs/43_Will_Smith_0006.jpg,non_target,1,0,1,0,0,40,40,61,,,,,,,,,,,,,,364.30945619998965,364.30945619998965,364.80875379999634,,,,,,,1,003,21,Deitado,2023-06-17_11h59.25.654,face_recognition_ERP_protocol,2022.2.5,60.09200085778801,
Celebs/43_Will_Smith_0010.jpg,non_target,1,0,1,0,0,41,41,22,,,,,,,,,,,,,,365.31051259997184,365.31051259997184,365.80991079998785,,,,,,,1,003,21,Deitado,2023-06-17_11h59.25.654,face_recognition_ERP_protocol,2022.2.5,60.09200085778801,
Celebs/43_Will_Smith_0007.jpg,non_target,1,0,1,0,0,42,42,74,,,,,,,,,,,,,,366.3124334999884,366.3124334999884,366.81099169998197,,,,,,,1,003,21,Deitado,2023-06-17_11h59.25.654,face_recognition_ERP_protocol,2022.2.5,60.09200085778801,
Celebs/50_Johnny_Depp_0004.jpg,non_target,1,0,1,0,0,43,43,39,,,,,,,,,,,,,,367.31142899999395,367.31142899999395,367.8118337999913,,,,,,,1,003,21,Deitado,2023-06-17_11h59.25.654,face_recognition_ERP_protocol,2022.2.5,60.09200085778801,
Celebs/51_Jackie_Chan_0006.jpg,non_target,1,0,1,0,0,44,44,97,,,,,,,,,,,,,,368.3156631999882,368.3156631999882,368.8129002999922,,,,,,,1,003,21,Deitado,2023-06-17_11h59.25.654,face_recognition_ERP_protocol,2022.2.5,60.09200085778801,
Celebs/21_Daniel_Radcliffe_0009.jpg,target,1,0,1,0,0,45,45,83,,,,,,,,,,,,,,369.3161862999841,369.3161862999841,369.8141172999749,,,,,,,1,003,21,Deitado,2023-06-17_11h59.25.654,face_recognition_ERP_protocol,2022.2.5,60.09200085778801,
Celebs/52_Jackie_Chan_0002.jpg,non_target,1,0,1,0,0,46,46,68,,,,,,,,,,,,,,370.3156506999803,370.3156506999803,370.81551069999114,,,,,,,1,003,21,Deitado,2023-06-17_11h59.25.654,face_recognition_ERP_protocol,2022.2.5,60.09200085778801,
Celebs/55_Jackie_Chan_0003.jpg,non_target,1,0,1,0,0,47,47,29,,,,,,,,,,,,,,371.31749379998655,371.31749379998655,371.81650799998897,,,,,,,1,003,21,Deitado,2023-06-17_11h59.25.654,face_recognition_ERP_protocol,2022.2.5,60.09200085778801,
Celebs/32_Jim_Parsons_0016.jpg,non_target,1,0,1,0,0,48,48,102,,,,,,,,,,,,,,372.3184216999798,372.3184216999798,372.81756289998884,,,,,,,1,003,21,Deitado,2023-06-17_11h59.25.654,face_recognition_ERP_protocol,2022.2.5,60.09200085778801,
Celebs/25_Scarlett_Johansson_0010.jpg,non_target,1,0,1,0,0,49,49,32,,,,,,,,,,,,,,373.302526399988,373.302526399988,373.80204909999156,,,,,,,1,003,21,Deitado,2023-06-17_11h59.25.654,face_recognition_ERP_protocol,2022.2.5,60.09200085778801,
Celebs/26_Scarlett_Johansson_0008.jpg,non_target,1,0,1,0,0,50,50,47,,,,,,,,,,,,,,374.3036326999718,374.3036326999718,374.8029211999965,,,,,,,1,003,21,Deitado,2023-06-17_11h59.25.654,face_recognition_ERP_protocol,2022.2.5,60.09200085778801,
Celebs/16_Emma_Stone_0010.jpg,non_target,1,0,1,0,0,51,51,95,,,,,,,,,,,,,,375.3089026999951,375.3089026999951,375.80426019997685,,,,,,,1,003,21,Deitado,2023-06-17_11h59.25.654,face_recognition_ERP_protocol,2022.2.5,60.09200085778801,
Celebs/29_Scarlett_Johansson_0010.jpg,non_target,1,0,1,0,0,52,52,85,,,,,,,,,,,,,,376.30582399998093,376.30582399998093,376.80497689999174,,,,,,,1,003,21,Deitado,2023-06-17_11h59.25.654,face_recognition_ERP_protocol,2022.2.5,60.09200085778801,
Celebs/45_Will_Smith_0010.jpg,non_target,1,0,1,0,0,53,53,69,,,,,,,,,,,,,,377.3112024999864,377.3112024999864,377.80597940000007,,,,,,,1,003,21,Deitado,2023-06-17_11h59.25.654,face_recognition_ERP_protocol,2022.2.5,60.09200085778801,
Celebs/20_Emma_Stone_0005.jpg,non_target,1,0,1,0,0,54,54,63,,,,,,,,,,,,,,378.3081026999862,378.3081026999862,378.8071797999728,,,,,,,1,003,21,Deitado,2023-06-17_11h59.25.654,face_recognition_ERP_protocol,2022.2.5,60.09200085778801,
Celebs/33_Neil_Patrick_Harris_0011.jpg,non_target,1,0,1,0,0,55,55,112,,,,,,,,,,,,,,379.3086633999774,379.3086633999774,379.80827929999214,,,,,,,1,003,21,Deitado,2023-06-17_11h59.25.654,face_recognition_ERP_protocol,2022.2.5,60.09200085778801,
Celebs/21_Margot_Robbie_0003.jpg,non_target,1,0,1,0,0,56,56,27,,,,,,,,,,,,,,380.3099341999914,380.3099341999914,380.8096073999768,,,,,,,1,003,21,Deitado,2023-06-17_11h59.25.654,face_recognition_ERP_protocol,2022.2.5,60.09200085778801,
Celebs/19_Margot_Robbie_0001.jpg,non_target,1,0,1,0,0,57,57,51,,,,,,,,,,,,,,381.3112244999793,381.3112244999793,381.8106420999975,,,,,,,1,003,21,Deitado,2023-06-17_11h59.25.654,face_recognition_ERP_protocol,2022.2.5,60.09200085778801,
Celebs/44_Will_Smith_0007.jpg,non_target,1,0,1,0,0,58,58,65,,,,,,,,,,,,,,382.3117230999924,382.3117230999924,382.8117507999996,,,,,,,1,003,21,Deitado,2023-06-17_11h59.25.654,face_recognition_ERP_protocol,2022.2.5,60.09200085778801,
Celebs/15_Margot_Robbie_0005.jpg,non_target,1,0,1,0,0,59,59,80,,,,,,,,,,,,,,383.31726739997976,383.31726739997976,383.81259839999257,,,,,,,1,003,21,Deitado,2023-06-17_11h59.25.654,face_recognition_ERP_protocol,2022.2.5,60.09200085778801,
Celebs/48_Johnny_Depp_0001.jpg,non_target,1,0,1,0,0,60,60,106,,,,,,,,,,,,,,384.3149360999814,384.3149360999814,384.81382889999077,,,,,,,1,003,21,Deitado,2023-06-17_11h59.25.654,face_recognition_ERP_protocol,2022.2.5,60.09200085778801,
Celebs/16_Emma_Stone_0008.jpg,non_target,1,0,1,0,0,61,61,48,,,,,,,,,,,,,,385.3156608999998,385.3156608999998,385.81481059998623,,,,,,,1,003,21,Deitado,2023-06-17_11h59.25.654,face_recognition_ERP_protocol,2022.2.5,60.09200085778801,
Celebs/16_Margot_Robbie_0009.jpg,non_target,1,0,1,0,0,62,62,107,,,,,,,,,,,,,,386.3172371999826,386.3172371999826,386.8160255999828,,,,,,,1,003,21,Deitado,2023-06-17_11h59.25.654,face_recognition_ERP_protocol,2022.2.5,60.09200085778801,
Celebs/50_Johnny_Depp_0010.jpg,non_target,1,0,1,0,0,63,63,115,,,,,,,,,,,,,,387.31867179999244,387.31867179999244,387.81717039999785,,,,,,,1,003,21,Deitado,2023-06-17_11h59.25.654,face_recognition_ERP_protocol,2022.2.5,60.09200085778801,
Celebs/14_Emma_Watson_0015.jpg,non_target,1,0,1,0,0,64,64,56,,,,,,,,,,,,,,388.3012577999907,388.3012577999907,388.80164479999803,,,,,,,1,003,21,Deitado,2023-06-17_11h59.25.654,face_recognition_ERP_protocol,2022.2.5,60.09200085778801,
Celebs/34_Neil_Patrick_Harris_0004.jpg,non_target,1,0,1,0,0,65,65,104,,,,,,,,,,,,,,389.30326509999577,389.30326509999577,389.8027397999831,,,,,,,1,003,21,Deitado,2023-06-17_11h59.25.654,face_recognition_ERP_protocol,2022.2.5,60.09200085778801,
Celebs/21_Daniel_Radcliffe_0008.jpg,target,1,0,1,0,0,66,66,16,,,,,,,,,,,,,,390.30364619998727,390.30364619998727,390.8036222999799,,,,,,,1,003,21,Deitado,2023-06-17_11h59.25.654,face_recognition_ERP_protocol,2022.2.5,60.09200085778801,
Celebs/24_Scarlett_Johansson_0001.jpg,non_target,1,0,1,0,0,67,67,10,,,,,,,,,,,,,,391.3058538999758,391.3058538999758,391.80496499998844,,,,,,,1,003,21,Deitado,2023-06-17_11h59.25.654,face_recognition_ERP_protocol,2022.2.5,60.09200085778801,
Celebs/38_Jim_Parsons_0003.jpg,non_target,1,0,1,0,0,68,68,53,,,,,,,,,,,,,,392.3063944999885,392.3063944999885,392.8054938999994,,,,,,,1,003,21,Deitado,2023-06-17_11h59.25.654,face_recognition_ERP_protocol,2022.2.5,60.09200085778801,
Celebs/22_Emma_Watson_0001.jpg,non_target,1,0,1,0,0,69,69,58,,,,,,,,,,,,,,393.3080024999799,393.3080024999799,393.8071262999729,,,,,,,1,003,21,Deitado,2023-06-17_11h59.25.654,face_recognition_ERP_protocol,2022.2.5,60.09200085778801,
Celebs/32_Jim_Parsons_0010.jpg,non_target,1,0,1,0,0,70,70,98,,,,,,,,,,,,,,394.3082959999738,394.3082959999738,394.8082164999796,,,,,,,1,003,21,Deitado,2023-06-17_11h59.25.654,face_recognition_ERP_protocol,2022.2.5,60.09200085778801,
Celebs/22_Emma_Stone_0013.jpg,non_target,1,0,1,0,0,71,71,1,,,,,,,,,,,,,,395.3088395999803,395.3088395999803,395.80933099999675,,,,,,,1,003,21,Deitado,2023-06-17_11h59.25.654,face_recognition_ERP_protocol,2022.2.5,60.09200085778801,
Celebs/37_Neil_Patrick_Harris_0010.jpg,non_target,1,0,1,0,0,72,72,93,,,,,,,,,,,,,,396.3087628999783,396.3087628999783,396.81037259998266,,,,,,,1,003,21,Deitado,2023-06-17_11h59.25.654,face_recognition_ERP_protocol,2022.2.5,60.09200085778801,
Celebs/36_Jim_Parsons_0011.jpg,non_target,1,0,1,0,0,73,73,86,,,,,,,,,,,,,,397.3122922999901,397.3122922999901,397.81157729998813,,,,,,,1,003,21,Deitado,2023-06-17_11h59.25.654,face_recognition_ERP_protocol,2022.2.5,60.09200085778801,
Celebs/40_Will_Smith_0012.jpg,non_target,1,0,1,0,0,74,74,110,,,,,,,,,,,,,,398.3182063999993,398.3182063999993,398.81234819997917,,,,,,,1,003,21,Deitado,2023-06-17_11h59.25.654,face_recognition_ERP_protocol,2022.2.5,60.09200085778801,
Celebs/39_Neil_Patrick_Harris_0001.jpg,non_target,1,0,1,0,0,75,75,4,,,,,,,,,,,,,,399.3148352999997,399.3148352999997,399.81357509997906,,,,,,,1,003,21,Deitado,2023-06-17_11h59.25.654,face_recognition_ERP_protocol,2022.2.5,60.09200085778801,
Celebs/34_Neil_Patrick_Harris_0007.jpg,non_target,1,0,1,0,0,76,76,117,,,,,,,,,,,,,,400.31500799997593,400.31500799997593,400.81492099998286,,,,,,,1,003,21,Deitado,2023-06-17_11h59.25.654,face_recognition_ERP_protocol,2022.2.5,60.09200085778801,
Celebs/27_Scarlett_Johansson_0012.jpg,non_target,1,0,1,0,0,77,77,78,,,,,,,,,,,,,,401.3143408999895,401.3143408999895,401.8157722999749,,,,,,,1,003,21,Deitado,2023-06-17_11h59.25.654,face_recognition_ERP_protocol,2022.2.5,60.09200085778801,
Celebs/50_Jackie_Chan_0014.jpg,non_target,1,0,1,0,0,78,78,38,,,,,,,,,,,,,,402.3173666999792,402.3173666999792,402.8169376999722,,,,,,,1,003,21,Deitado,2023-06-17_11h59.25.654,face_recognition_ERP_protocol,2022.2.5,60.09200085778801,
Celebs/16_Emma_Stone_0012.jpg,non_target,1,0,1,0,0,79,79,70,,,,,,,,,,,,,,403.30265819997294,403.30265819997294,403.8009874999989,,,,,,,1,003,21,Deitado,2023-06-17_11h59.25.654,face_recognition_ERP_protocol,2022.2.5,60.09200085778801,
Celebs/45_Johnny_Depp_0003.jpg,non_target,1,0,1,0,0,80,80,108,,,,,,,,,,,,,,404.3012512999994,404.3012512999994,404.80231799997273,,,,,,,1,003,21,Deitado,2023-06-17_11h59.25.654,face_recognition_ERP_protocol,2022.2.5,60.09200085778801,
Celebs/24_Emma_Stone_0015.jpg,non_target,1,0,1,0,0,81,81,57,,,,,,,,,,,,,,405.307502199983,405.307502199983,405.8035355999891,,,,,,,1,003,21,Deitado,2023-06-17_11h59.25.654,face_recognition_ERP_protocol,2022.2.5,60.09200085778801,
Celebs/21_Daniel_Radcliffe_0002.jpg,target,1,0,1,0,0,82,82,60,,,,,,,,,,,,,,406.3049120999931,406.3049120999931,406.8046920999768,,,,,,,1,003,21,Deitado,2023-06-17_11h59.25.654,face_recognition_ERP_protocol,2022.2.5,60.09200085778801,
Celebs/47_Johnny_Depp_0009.jpg,non_target,1,0,1,0,0,83,83,23,,,,,,,,,,,,,,407.30696469999384,407.30696469999384,407.8053940999962,,,,,,,1,003,21,Deitado,2023-06-17_11h59.25.654,face_recognition_ERP_protocol,2022.2.5,60.09200085778801,
Celebs/18_Daniel_Radcliffe_0008.jpg,target,1,0,1,0,0,84,84,28,,,,,,,,,,,,,,408.30796649999684,408.30796649999684,408.80732839999837,,,,,,,1,003,21,Deitado,2023-06-17_11h59.25.654,face_recognition_ERP_protocol,2022.2.5,60.09200085778801,
Celebs/24_Scarlett_Johansson_0011.jpg,non_target,1,0,1,0,0,85,85,100,,,,,,,,,,,,,,409.3092311999935,409.3092311999935,409.8077799999737,,,,,,,1,003,21,Deitado,2023-06-17_11h59.25.654,face_recognition_ERP_protocol,2022.2.5,60.09200085778801,
Celebs/36_Neil_Patrick_Harris_0007.jpg,non_target,1,0,1,0,0,86,86,5,,,,,,,,,,,,,,410.31375419997494,410.31375419997494,410.80876669997815,,,,,,,1,003,21,Deitado,2023-06-17_11h59.25.654,face_recognition_ERP_protocol,2022.2.5,60.09200085778801,
Celebs/57_Jackie_Chan_0010.jpg,non_target,1,0,1,0,0,87,87,62,,,,,,,,,,,,,,411.31405709998216,411.31405709998216,411.8099678999861,,,,,,,1,003,21,Deitado,2023-06-17_11h59.25.654,face_recognition_ERP_protocol,2022.2.5,60.09200085778801,
Celebs/14_Emma_Watson_0005.jpg,non_target,1,0,1,0,0,88,88,26,,,,,,,,,,,,,,412.3114458999771,412.3114458999771,412.81079929997213,,,,,,,1,003,21,Deitado,2023-06-17_11h59.25.654,face_recognition_ERP_protocol,2022.2.5,60.09200085778801,
Celebs/47_Johnny_Depp_0003.jpg,non_target,1,0,1,0,0,89,89,9,,,,,,,,,,,,,,413.31716729997424,413.31716729997424,413.81209489997127,,,,,,,1,003,21,Deitado,2023-06-17_11h59.25.654,face_recognition_ERP_protocol,2022.2.5,60.09200085778801,
Celebs/21_Emma_Watson_0004.jpg,non_target,1,0,1,0,0,90,90,21,,,,,,,,,,,,,,414.31405559999985,414.31405559999985,414.81325719997403,,,,,,,1,003,21,Deitado,2023-06-17_11h59.25.654,face_recognition_ERP_protocol,2022.2.5,60.09200085778801,
Celebs/23_Daniel_Radcliffe_0019.jpg,target,1,0,1,0,0,91,91,6,,,,,,,,,,,,,,415.3141708999756,415.3141708999756,415.8144965999818,,,,,,,1,003,21,Deitado,2023-06-17_11h59.25.654,face_recognition_ERP_protocol,2022.2.5,60.09200085778801,
Celebs/23_Daniel_Radcliffe_0010.jpg,target,1,0,1,0,0,92,92,15,,,,,,,,,,,,,,416.3196586999984,416.3196586999984,416.81536969999433,,,,,,,1,003,21,Deitado,2023-06-17_11h59.25.654,face_recognition_ERP_protocol,2022.2.5,60.09200085778801,
Celebs/39_Jim_Parsons_0001.jpg,non_target,1,0,1,0,0,93,93,49,,,,,,,,,,,,,,417.32080189997214,417.32080189997214,417.81666789998417,,,,,,,1,003,21,Deitado,2023-06-17_11h59.25.654,face_recognition_ERP_protocol,2022.2.5,60.09200085778801,
Celebs/40_Jim_Parsons_0015.jpg,non_target,1,0,1,0,0,94,94,45,,,,,,,,,,,,,,418.317395399994,418.317395399994,418.80123879999155,,,,,,,1,003,21,Deitado,2023-06-17_11h59.25.654,face_recognition_ERP_protocol,2022.2.5,60.09200085778801,
Celebs/21_Emma_Stone_0002.jpg,non_target,1,0,1,0,0,95,95,103,,,,,,,,,,,,,,419.3028704999888,419.3028704999888,419.8022440999921,,,,,,,1,003,21,Deitado,2023-06-17_11h59.25.654,face_recognition_ERP_protocol,2022.2.5,60.09200085778801,
Celebs/20_Margot_Robbie_0004.jpg,non_target,1,0,1,0,0,96,96,116,,,,,,,,,,,,,,420.3041400999937,420.3041400999937,420.80312619998585,,,,,,,1,003,21,Deitado,2023-06-17_11h59.25.654,face_recognition_ERP_protocol,2022.2.5,60.09200085778801,
Celebs/14_Emma_Watson_0008.jpg,non_target,1,0,1,0,0,97,97,36,,,,,,,,,,,,,,421.30510929998127,421.30510929998127,421.80420299997786,,,,,,,1,003,21,Deitado,2023-06-17_11h59.25.654,face_recognition_ERP_protocol,2022.2.5,60.09200085778801,
Celebs/19_Emma_Stone_0006.jpg,non_target,1,0,1,0,0,98,98,66,,,,,,,,,,,,,,422.3109579999873,422.3109579999873,422.805529699981,,,,,,,1,003,21,Deitado,2023-06-17_11h59.25.654,face_recognition_ERP_protocol,2022.2.5,60.09200085778801,
Celebs/22_Margot_Robbie_0010.jpg,non_target,1,0,1,0,0,99,99,18,,,,,,,,,,,,,,423.3110102999781,423.3110102999781,423.8064622999809,,,,,,,1,003,21,Deitado,2023-06-17_11h59.25.654,face_recognition_ERP_protocol,2022.2.5,60.09200085778801,
Celebs/15_Margot_Robbie_0012.jpg,non_target,1,0,1,0,0,100,100,82,,,,,,,,,,,,,,424.3087618999998,424.3087618999998,424.8075828999863,,,,,,,1,003,21,Deitado,2023-06-17_11h59.25.654,face_recognition_ERP_protocol,2022.2.5,60.09200085778801,
Celebs/31_Neil_Patrick_Harris_0008.jpg,non_target,1,0,1,0,0,101,101,99,,,,,,,,,,,,,,425.3107788999914,425.3107788999914,425.80847249997896,,,,,,,1,003,21,Deitado,2023-06-17_11h59.25.654,face_recognition_ERP_protocol,2022.2.5,60.09200085778801,
Celebs/47_Johnny_Depp_0004.jpg,non_target,1,0,1,0,0,102,102,76,,,,,,,,,,,,,,426.31015189999016,426.31015189999016,426.80986709997524,,,,,,,1,003,21,Deitado,2023-06-17_11h59.25.654,face_recognition_ERP_protocol,2022.2.5,60.09200085778801,
Celebs/42_Will_Smith_0012.jpg,non_target,1,0,1,0,0,103,103,64,,,,,,,,,,,,,,427.3119886999775,427.3119886999775,427.8108997999807,,,,,,,1,003,21,Deitado,2023-06-17_11h59.25.654,face_recognition_ERP_protocol,2022.2.5,60.09200085778801,
Celebs/39_Neil_Patrick_Harris_0010.jpg,non_target,1,0,1,0,0,104,104,94,,,,,,,,,,,,,,428.31349389997195,428.31349389997195,428.8118807999999,,,,,,,1,003,21,Deitado,2023-06-17_11h59.25.654,face_recognition_ERP_protocol,2022.2.5,60.09200085778801,
Celebs/57_Jackie_Chan_0008.jpg,non_target,1,0,1,0,0,105,105,72,,,,,,,,,,,,,,429.3188222999743,429.3188222999743,429.81412669998826,,,,,,,1,003,21,Deitado,2023-06-17_11h59.25.654,face_recognition_ERP_protocol,2022.2.5,60.09200085778801,
Celebs/55_Jackie_Chan_0008.jpg,non_target,1,0,1,0,0,106,106,92,,,,,,,,,,,,,,430.31704649998574,430.31704649998574,430.8140359999961,,,,,,,1,003,21,Deitado,2023-06-17_11h59.25.654,face_recognition_ERP_protocol,2022.2.5,60.09200085778801,
Celebs/18_Emma_Watson_0004.jpg,non_target,1,0,1,0,0,107,107,75,,,,,,,,,,,,,,431.3166502999957,431.3166502999957,431.8156879999733,,,,,,,1,003,21,Deitado,2023-06-17_11h59.25.654,face_recognition_ERP_protocol,2022.2.5,60.09200085778801,
Celebs/18_Emma_Stone_0016.jpg,non_target,1,0,1,0,0,108,108,52,,,,,,,,,,,,,,432.33271259997855,432.33271259997855,432.8163702999882,,,,,,,1,003,21,Deitado,2023-06-17_11h59.25.654,face_recognition_ERP_protocol,2022.2.5,60.09200085778801,
Celebs/22_Emma_Watson_0010.jpg,non_target,1,0,1,0,0,109,109,11,,,,,,,,,,,,,,433.3175331999955,433.3175331999955,433.8020593999827,,,,,,,1,003,21,Deitado,2023-06-17_11h59.25.654,face_recognition_ERP_protocol,2022.2.5,60.09200085778801,
Celebs/20_Emma_Watson_0007.jpg,non_target,1,0,1,0,0,110,110,96,,,,,,,,,,,,,,434.31973669998115,434.31973669998115,434.8027335999941,,,,,,,1,003,21,Deitado,2023-06-17_11h59.25.654,face_recognition_ERP_protocol,2022.2.5,60.09200085778801,
Celebs/23_Daniel_Radcliffe_0002.jpg,target,1,0,1,0,0,111,111,77,,,,,,,,,,,,,,435.31992479998735,435.31992479998735,435.80346879997524,,,,,,,1,003,21,Deitado,2023-06-17_11h59.25.654,face_recognition_ERP_protocol,2022.2.5,60.09200085778801,
Celebs/36_Neil_Patrick_Harris_0010.jpg,non_target,1,0,1,0,0,112,112,79,,,,,,,,,,,,,,436.3210444999859,436.3210444999859,436.80444159999024,,,,,,,1,003,21,Deitado,2023-06-17_11h59.25.654,face_recognition_ERP_protocol,2022.2.5,60.09200085778801,
Celebs/39_Jim_Parsons_0010.jpg,non_target,1,0,1,0,0,113,113,0,,,,,,,,,,,,,,437.31033169999137,437.31033169999137,437.8058354999812,,,,,,,1,003,21,Deitado,2023-06-17_11h59.25.654,face_recognition_ERP_protocol,2022.2.5,60.09200085778801,
Celebs/21_Daniel_Radcliffe_0012.jpg,target,1,0,1,0,0,114,114,8,,,,,,,,,,,,,,438.32296459999634,438.32296459999634,438.8066736999899,,,,,,,1,003,21,Deitado,2023-06-17_11h59.25.654,face_recognition_ERP_protocol,2022.2.5,60.09200085778801,
Celebs/38_Neil_Patrick_Harris_0006.jpg,non_target,1,0,1,0,0,115,115,31,,,,,,,,,,,,,,439.32355339999776,439.32355339999776,439.8074609999894,,,,,,,1,003,21,Deitado,2023-06-17_11h59.25.654,face_recognition_ERP_protocol,2022.2.5,60.09200085778801,
Celebs/55_Jackie_Chan_0015.jpg,non_target,1,0,1,0,0,116,116,30,,,,,,,,,,,,,,440.30974489997607,440.30974489997607,440.80824479999137,,,,,,,1,003,21,Deitado,2023-06-17_11h59.25.654,face_recognition_ERP_protocol,2022.2.5,60.09200085778801,
Celebs/17_Daniel_Radcliffe_0007.jpg,target,1,0,1,0,0,117,117,19,,,,,,,,,,,,,,441.310473199992,441.310473199992,441.80972989997827,,,,,,,1,003,21,Deitado,2023-06-17_11h59.25.654,face_recognition_ERP_protocol,2022.2.5,60.09200085778801,
Celebs/50_Johnny_Depp_0018.jpg,non_target,1,0,1,0,0,118,118,24,,,,,,,,,,,,,,442.327490799973,442.327490799973,442.8110914999852,,,,,,,1,003,21,Deitado,2023-06-17_11h59.25.654,face_recognition_ERP_protocol,2022.2.5,60.09200085778801,
Celebs/50_Johnny_Depp_0008.jpg,non_target,1,0,1,0,0,119,119,84,,,,,,,,,,,,,,443.3132989999722,443.3132989999722,443.81153949999134,,,,,,,1,003,21,Deitado,2023-06-17_11h59.25.654,face_recognition_ERP_protocol,2022.2.5,60.09200085778801,
Celebs/14_Emma_Watson_0005.jpg,non_target,2,0,2,0,0,0,0,26,,,,,,,,,,,,,,449.99834139997256,449.99834139997256,450.4524703999923,444.3124675999861,444.3124675999861,space,5.601371900003869,,,1,003,21,Deitado,2023-06-17_11h59.25.654,face_recognition_ERP_protocol,2022.2.5,60.09200085778801,
Celebs/21_Emma_Stone_0003.jpg,non_target,2,0,2,0,0,1,1,25,,,,,,,,,,,,,,450.9545495999919,450.9545495999919,451.4535208999878,,,,,,,1,003,21,Deitado,2023-06-17_11h59.25.654,face_recognition_ERP_protocol,2022.2.5,60.09200085778801,
Celebs/39_Jim_Parsons_0001.jpg,non_target,2,0,2,0,0,2,2,49,,,,,,,,,,,,,,451.9377843999828,451.9377843999828,452.4378448999778,,,,,,,1,003,21,Deitado,2023-06-17_11h59.25.654,face_recognition_ERP_protocol,2022.2.5,60.09200085778801,
Celebs/57_Jackie_Chan_0010.jpg,non_target,2,0,2,0,0,3,3,62,,,,,,,,,,,,,,452.9387850999774,452.9387850999774,453.4387606999953,,,,,,,1,003,21,Deitado,2023-06-17_11h59.25.654,face_recognition_ERP_protocol,2022.2.5,60.09200085778801,
Celebs/17_Margot_Robbie_0006.jpg,non_target,2,0,2,0,0,4,4,17,,,,,,,,,,,,,,453.9394279999833,453.9394279999833,454.43961439997656,,,,,,,1,003,21,Deitado,2023-06-17_11h59.25.654,face_recognition_ERP_protocol,2022.2.5,60.09200085778801,
Celebs/24_Emma_Stone_0015.jpg,non_target,2,0,2,0,0,5,5,57,,,,,,,,,,,,,,454.9406080999761,454.9406080999761,455.4407878999773,,,,,,,1,003,21,Deitado,2023-06-17_11h59.25.654,face_recognition_ERP_protocol,2022.2.5,60.09200085778801,
Celebs/43_Will_Smith_0010.jpg,non_target,2,0,2,0,0,6,6,22,,,,,,,,,,,,,,455.94228399998974,455.94228399998974,456.4418941999902,,,,,,,1,003,21,Deitado,2023-06-17_11h59.25.654,face_recognition_ERP_protocol,2022.2.5,60.09200085778801,
Celebs/40_Jim_Parsons_0015.jpg,non_target,2,0,2,0,0,7,7,45,,,,,,,,,,,,,,456.94305859997985,456.94305859997985,457.4430695999763,,,,,,,1,003,21,Deitado,2023-06-17_11h59.25.654,face_recognition_ERP_protocol,2022.2.5,60.09200085778801,
Celebs/27_Scarlett_Johansson_0012.jpg,non_target,2,0,2,0,0,8,8,78,,,,,,,,,,,,,,457.9441553999786,457.9441553999786,458.44411159999436,,,,,,,1,003,21,Deitado,2023-06-17_11h59.25.654,face_recognition_ERP_protocol,2022.2.5,60.09200085778801,
Celebs/52_Jackie_Chan_0002.jpg,non_target,2,0,2,0,0,9,9,68,,,,,,,,,,,,,,458.9448990999954,458.9448990999954,459.4452692999912,,,,,,,1,003,21,Deitado,2023-06-17_11h59.25.654,face_recognition_ERP_protocol,2022.2.5,60.09200085778801,
Celebs/24_Scarlett_Johansson_0011.jpg,non_target,2,0,2,0,0,10,10,100,,,,,,,,,,,,,,459.9460246999806,459.9460246999806,460.4464078999881,,,,,,,1,003,21,Deitado,2023-06-17_11h59.25.654,face_recognition_ERP_protocol,2022.2.5,60.09200085778801,
Celebs/36_Jim_Parsons_0011.jpg,non_target,2,0,2,0,0,11,11,86,,,,,,,,,,,,,,460.94713609997416,460.94713609997416,461.44732909998856,,,,,,,1,003,21,Deitado,2023-06-17_11h59.25.654,face_recognition_ERP_protocol,2022.2.5,60.09200085778801,
Celebs/21_Daniel_Radcliffe_0008.jpg,target,2,0,2,0,0,12,12,16,,,,,,,,,,,,,,461.9475067999738,461.9475067999738,462.44858729999396,,,,,,,1,003,21,Deitado,2023-06-17_11h59.25.654,face_recognition_ERP_protocol,2022.2.5,60.09200085778801,
Celebs/38_Neil_Patrick_Harris_0006.jpg,non_target,2,0,2,0,0,13,13,31,,,,,,,,,,,,,,462.94863539998187,462.94863539998187,463.4495203999977,,,,,,,1,003,21,Deitado,2023-06-17_11h59.25.654,face_recognition_ERP_protocol,2022.2.5,60.09200085778801,
Celebs/55_Jackie_Chan_0008.jpg,non_target,2,0,2,0,0,14,14,92,,,,,,,,,,,,,,463.9493462999817,463.9493462999817,464.4510404999892,,,,,,,1,003,21,Deitado,2023-06-17_11h59.25.654,face_recognition_ERP_protocol,2022.2.5,60.09200085778801,
Celebs/15_Margot_Robbie_0005.jpg,non_target,2,0,2,0,0,15,15,80,,,,,,,,,,,,,,464.95053679999546,464.95053679999546,465.4515156999987,,,,,,,1,003,21,Deitado,2023-06-17_11h59.25.654,face_recognition_ERP_protocol,2022.2.5,60.09200085778801,
Celebs/39_Jim_Parsons_0010.jpg,non_target,2,0,2,0,0,16,16,0,,,,,,,,,,,,,,465.9525963999913,465.9525963999913,466.45255879999604,,,,,,,1,003,21,Deitado,2023-06-17_11h59.25.654,face_recognition_ERP_protocol,2022.2.5,60.09200085778801,
Celebs/47_Johnny_Depp_0004.jpg,non_target,2,0,2,0,0,17,17,76,,,,,,,,,,,,,,466.9536418999778,466.9536418999778,467.4539989999903,,,,,,,1,003,21,Deitado,2023-06-17_11h59.25.654,face_recognition_ERP_protocol,2022.2.5,60.09200085778801,
Celebs/24_Scarlett_Johansson_0001.jpg,non_target,2,0,2,0,0,18,18,10,,,,,,,,,,,,,,467.9373012999713,467.9373012999713,468.43842999998014,,,,,,,1,003,21,Deitado,2023-06-17_11h59.25.654,face_recognition_ERP_protocol,2022.2.5,60.09200085778801,
Celebs/14_Emma_Watson_0015.jpg,non_target,2,0,2,0,0,19,19,56,,,,,,,,,,,,,,468.9394057999889,468.9394057999889,469.4392942999839,,,,,,,1,003,21,Deitado,2023-06-17_11h59.25.654,face_recognition_ERP_protocol,2022.2.5,60.09200085778801,
Celebs/44_Will_Smith_0006.jpg,non_target,2,0,2,0,0,20,20,41,,,,,,,,,,,,,,469.94057379997685,469.94057379997685,470.4405314999749,,,,,,,1,003,21,Deitado,2023-06-17_11h59.25.654,face_recognition_ERP_protocol,2022.2.5,60.09200085778801,
Celebs/28_Scarlett_Johansson_0005.jpg,non_target,2,0,2,0,0,21,21,50,,,,,,,,,,,,,,470.94160789999296,470.94160789999296,471.44134069999564,,,,,,,1,003,21,Deitado,2023-06-17_11h59.25.654,face_recognition_ERP_protocol,2022.2.5,60.09200085778801,
Celebs/55_Jackie_Chan_0015.jpg,non_target,2,0,2,0,0,22,22,30,,,,,,,,,,,,,,471.94251319998875,471.94251319998875,472.4427109999815,,,,,,,1,003,21,Deitado,2023-06-17_11h59.25.654,face_recognition_ERP_protocol,2022.2.5,60.09200085778801,
Celebs/22_Emma_Watson_0001.jpg,non_target,2,0,2,0,0,23,23,58,,,,,,,,,,,,,,472.94422599999234,472.94422599999234,473.44408419998945,,,,,,,1,003,21,Deitado,2023-06-17_11h59.25.654,face_recognition_ERP_protocol,2022.2.5,60.09200085778801,
Celebs/17_Daniel_Radcliffe_0007.jpg,target,2,0,2,0,0,24,24,19,,,,,,,,,,,,,,473.9447372999857,473.9447372999857,474.44474859998445,,,,,,,1,003,21,Deitado,2023-06-17_11h59.25.654,face_recognition_ERP_protocol,2022.2.5,60.09200085778801,
Celebs/32_Jim_Parsons_0018.jpg,non_target,2,0,2,0,0,25,25,46,,,,,,,,,,,,,,474.9459015999746,474.9459015999746,475.4458544999943,,,,,,,1,003,21,Deitado,2023-06-17_11h59.25.654,face_recognition_ERP_protocol,2022.2.5,60.09200085778801,
Celebs/36_Neil_Patrick_Harris_0010.jpg,non_target,2,0,2,0,0,26,26,79,,,,,,,,,,,,,,475.9456136999943,475.9456136999943,476.44712219998473,,,,,,,1,003,21,Deitado,2023-06-17_11h59.25.654,face_recognition_ERP_protocol,2022.2.5,60.09200085778801,
Celebs/21_Daniel_Radcliffe_0012.jpg,target,2,0,2,0,0,27,27,8,,,,,,,,,,,,,,476.9482340999821,476.9482340999821,477.4481398999924,,,,,,,1,003,21,Deitado,2023-06-17_11h59.25.654,face_recognition_ERP_protocol,2022.2.5,60.09200085778801,
Celebs/23_Emma_Stone_0014.jpg,non_target,2,0,2,0,0,28,28,12,,,,,,,,,,,,,,477.9481610999792,477.9481610999792,478.4491263999953,,,,,,,1,003,21,Deitado,2023-06-17_11h59.25.654,face_recognition_ERP_protocol,2022.2.5,60.09200085778801,
Celebs/33_Jim_Parsons_0011.jpg,non_target,2,0,2,0,0,29,29,34,,,,,,,,,,,,,,478.9494450999773,478.9494450999773,479.4503672999854,,,,,,,1,003,21,Deitado,2023-06-17_11h59.25.654,face_recognition_ERP_protocol,2022.2.5,60.09200085778801,
Celebs/48_Johnny_Depp_0001.jpg,non_target,2,0,2,0,0,30,30,106,,,,,,,,,,,,,,479.95007629998145,479.95007629998145,480.45201359997736,,,,,,,1,003,21,Deitado,2023-06-17_11h59.25.654,face_recognition_ERP_protocol,2022.2.5,60.09200085778801,
Celebs/26_Scarlett_Johansson_0008.jpg,non_target,2,0,2,0,0,31,31,47,,,,,,,,,,,,,,480.95271169999614,480.95271169999614,481.45229359998484,,,,,,,1,003,21,Deitado,2023-06-17_11h59.25.654,face_recognition_ERP_protocol,2022.2.5,60.09200085778801,
Celebs/39_Neil_Patrick_Harris_0010.jpg,non_target,2,0,2,0,0,32,32,94,,,,,,,,,,,,,,481.95292299997527,481.95292299997527,482.4536503999843,,,,,,,1,003,21,Deitado,2023-06-17_11h59.25.654,face_recognition_ERP_protocol,2022.2.5,60.09200085778801,
Celebs/21_Daniel_Radcliffe_0009.jpg,target,2,0,2,0,0,33,33,83,,,,,,,,,,,,,,482.93801209999947,482.93801209999947,483.4381723999977,,,,,,,1,003,21,Deitado,2023-06-17_11h59.25.654,face_recognition_ERP_protocol,2022.2.5,60.09200085778801,
Celebs/18_Daniel_Radcliffe_0002.jpg,target,2,0,2,0,0,34,34,119,,,,,,,,,,,,,,483.9398704999767,483.9398704999767,484.4413296999992,,,,,,,1,003,21,Deitado,2023-06-17_11h59.25.654,face_recognition_ERP_protocol,2022.2.5,60.09200085778801,
Celebs/57_Jackie_Chan_0008.jpg,non_target,2,0,2,0,0,35,35,72,,,,,,,,,,,,,,484.9403110999847,484.9403110999847,485.44013979999,,,,,,,1,003,21,Deitado,2023-06-17_11h59.25.654,face_recognition_ERP_protocol,2022.2.5,60.09200085778801,
Celebs/24_Daniel_Radcliffe_0017.jpg,target,2,0,2,0,0,36,36,71,,,,,,,,,,,,,,485.9399673999869,485.9399673999869,486.4414028999745,,,,,,,1,003,21,Deitado,2023-06-17_11h59.25.654,face_recognition_ERP_protocol,2022.2.5,60.09200085778801,
Celebs/18_Emma_Stone_0016.jpg,non_target,2,0,2,0,0,37,37,52,,,,,,,,,,,,,,486.9420468999888,486.9420468999888,487.4425450999988,,,,,,,1,003,21,Deitado,2023-06-17_11h59.25.654,face_recognition_ERP_protocol,2022.2.5,60.09200085778801,
Celebs/16_Emma_Stone_0012.jpg,non_target,2,0,2,0,0,38,38,70,,,,,,,,,,,,,,487.9433339999814,487.9433339999814,488.44315849998384,,,,,,,1,003,21,Deitado,2023-06-17_11h59.25.654,face_recognition_ERP_protocol,2022.2.5,60.09200085778801,
Celebs/47_Johnny_Depp_0003.jpg,non_target,2,0,2,0,0,39,39,9,,,,,,,,,,,,,,488.9450325999933,488.9450325999933,489.4447479999799,,,,,,,1,003,21,Deitado,2023-06-17_11h59.25.654,face_recognition_ERP_protocol,2022.2.5,60.09200085778801,
Celebs/50_Johnny_Depp_0008.jpg,non_target,2,0,2,0,0,40,40,84,,,,,,,,,,,,,,489.9461113999714,489.9461113999714,490.44567509999615,,,,,,,1,003,21,Deitado,2023-06-17_11h59.25.654,face_recognition_ERP_protocol,2022.2.5,60.09200085778801,
Celebs/39_Neil_Patrick_Harris_0001.jpg,non_target,2,0,2,0,0,41,41,4,,,,,,,,,,,,,,490.94538789999206,490.94538789999206,491.4467103999923,,,,,,,1,003,21,Deitado,2023-06-17_11h59.25.654,face_recognition_ERP_protocol,2022.2.5,60.09200085778801,
Celebs/50_Johnny_Depp_0018.jpg,non_target,2,0,2,0,0,42,42,24,,,,,,,,,,,,,,491.94739639997715,491.94739639997715,492.4480257999967,,,,,,,1,003,21,Deitado,2023-06-17_11h59.25.654,face_recognition_ERP_protocol,2022.2.5,60.09200085778801,
Celebs/15_Margot_Robbie_0012.jpg,non_target,2,0,2,0,0,43,43,82,,,,,,,,,,,,,,492.9479724999983,492.9479724999983,493.4490937999799,,,,,,,1,003,21,Deitado,2023-06-17_11h59.25.654,face_recognition_ERP_protocol,2022.2.5,60.09200085778801,
Celebs/44_Will_Smith_0007.jpg,non_target,2,0,2,0,0,44,44,65,,,,,,,,,,,,,,493.94920829997864,493.94920829997864,494.4502130999754,,,,,,,1,003,21,Deitado,2023-06-17_11h59.25.654,face_recognition_ERP_protocol,2022.2.5,60.09200085778801,
Celebs/20_Emma_Stone_0005.jpg,non_target,2,0,2,0,0,45,45,63,,,,,,,,,,,,,,494.9508083999972,494.9508083999972,495.4511937999923,,,,,,,1,003,21,Deitado,2023-06-17_11h59.25.654,face_recognition_ERP_protocol,2022.2.5,60.09200085778801,
Celebs/23_Daniel_Radcliffe_0010.jpg,target,2,0,2,0,0,46,46,15,,,,,,,,,,,,,,495.9525943999761,495.9525943999761,496.4524868999724,,,,,,,1,003,21,Deitado,2023-06-17_11h59.25.654,face_recognition_ERP_protocol,2022.2.5,60.09200085778801,
Celebs/19_Margot_Robbie_0004.jpg,non_target,2,0,2,0,0,47,47,42,,,,,,,,,,,,,,496.95292639997206,496.95292639997206,497.4531761999824,,,,,,,1,003,21,Deitado,2023-06-17_11h59.25.654,face_recognition_ERP_protocol,2022.2.5,60.09200085778801,
Celebs/36_Neil_Patrick_Harris_0007.jpg,non_target,2,0,2,0,0,48,48,5,,,,,,,,,,,,,,497.9585959999822,497.9585959999822,498.4379208999744,,,,,,,1,003,21,Deitado,2023-06-17_11h59.25.654,face_recognition_ERP_protocol,2022.2.5,60.09200085778801,
Celebs/37_Neil_Patrick_Harris_0014.jpg,non_target,2,0,2,0,0,49,49,37,,,,,,,,,,,,,,498.93933659998584,498.93933659998584,499.43901679999544,,,,,,,1,003,21,Deitado,2023-06-17_11h59.25.654,face_recognition_ERP_protocol,2022.2.5,60.09200085778801,
Celebs/39_Jim_Parsons_0008.jpg,non_target,2,0,2,0,0,50,50,89,,,,,,,,,,,,,,499.9409974999726,499.9409974999726,500.44014149997383,,,,,,,1,003,21,Deitado,2023-06-17_11h59.25.654,face_recognition_ERP_protocol,2022.2.5,60.09200085778801,
Celebs/51_Jackie_Chan_0006.jpg,non_target,2,0,2,0,0,51,51,97,,,,,,,,,,,,,,500.9409987999825,500.9409987999825,501.4412152999721,,,,,,,1,003,21,Deitado,2023-06-17_11h59.25.654,face_recognition_ERP_protocol,2022.2.5,60.09200085778801,
Celebs/22_Scarlett_Johansson_0005.jpg,non_target,2,0,2,0,0,52,52,44,,,,,,,,,,,,,,501.9420212999976,501.9420212999976,502.44227979998686,,,,,,,1,003,21,Deitado,2023-06-17_11h59.25.654,face_recognition_ERP_protocol,2022.2.5,60.09200085778801,
Celebs/22_Emma_Watson_0003.jpg,non_target,2,0,2,0,0,53,53,91,,,,,,,,,,,,,,502.94389609998325,502.94389609998325,503.4434046999959,,,,,,,1,003,21,Deitado,2023-06-17_11h59.25.654,face_recognition_ERP_protocol,2022.2.5,60.09200085778801,
Celebs/40_Will_Smith_0012.jpg,non_target,2,0,2,0,0,54,54,110,,,,,,,,,,,,,,503.94527329999255,503.94527329999255,504.44454369999585,,,,,,,1,003,21,Deitado,2023-06-17_11h59.25.654,face_recognition_ERP_protocol,2022.2.5,60.09200085778801,
Celebs/29_Scarlett_Johansson_0016.jpg,non_target,2,0,2,0,0,55,55,2,,,,,,,,,,,,,,504.9453137999808,504.9453137999808,505.4455742999853,,,,,,,1,003,21,Deitado,2023-06-17_11h59.25.654,face_recognition_ERP_protocol,2022.2.5,60.09200085778801,
Celebs/38_Jim_Parsons_0003.jpg,non_target,2,0,2,0,0,56,56,53,,,,,,,,,,,,,,505.9471527999849,505.9471527999849,506.4462233999802,,,,,,,1,003,21,Deitado,2023-06-17_11h59.25.654,face_recognition_ERP_protocol,2022.2.5,60.09200085778801,
Celebs/22_Emma_Watson_0010.jpg,non_target,2,0,2,0,0,57,57,11,,,,,,,,,,,,,,506.947765799996,506.947765799996,507.44790319999447,,,,,,,1,003,21,Deitado,2023-06-17_11h59.25.654,face_recognition_ERP_protocol,2022.2.5,60.09200085778801,
Celebs/32_Jim_Parsons_0010.jpg,non_target,2,0,2,0,0,58,58,98,,,,,,,,,,,,,,507.94949489997816,507.94949489997816,508.44890379998833,,,,,,,1,003,21,Deitado,2023-06-17_11h59.25.654,face_recognition_ERP_protocol,2022.2.5,60.09200085778801,
Celebs/55_Jackie_Chan_0003.jpg,non_target,2,0,2,0,0,59,59,29,,,,,,,,,,,,,,508.950955599983,508.950955599983,509.4498271999764,,,,,,,1,003,21,Deitado,2023-06-17_11h59.25.654,face_recognition_ERP_protocol,2022.2.5,60.09200085778801,
Celebs/50_Jackie_Chan_0012.jpg,non_target,2,0,2,0,0,60,60,43,,,,,,,,,,,,,,509.9521200999734,509.9521200999734,510.4511558999948,,,,,,,1,003,21,Deitado,2023-06-17_11h59.25.654,face_recognition_ERP_protocol,2022.2.5,60.09200085778801,
Celebs/21_Daniel_Radcliffe_0002.jpg,target,2,0,2,0,0,61,61,60,,,,,,,,,,,,,,510.9533195999975,510.9533195999975,511.4521040999971,,,,,,,1,003,21,Deitado,2023-06-17_11h59.25.654,face_recognition_ERP_protocol,2022.2.5,60.09200085778801,
Celebs/35_Neil_Patrick_Harris_0009.jpg,non_target,2,0,2,0,0,62,62,87,,,,,,,,,,,,,,511.9527453999908,511.9527453999908,512.4533617999987,,,,,,,1,003,21,Deitado,2023-06-17_11h59.25.654,face_recognition_ERP_protocol,2022.2.5,60.09200085778801,
Celebs/20_Margot_Robbie_0006.jpg,non_target,2,0,2,0,0,63,63,35,,,,,,,,,,,,,,512.9547267999733,512.9547267999733,513.4379686999891,,,,,,,1,003,21,Deitado,2023-06-17_11h59.25.654,face_recognition_ERP_protocol,2022.2.5,60.09200085778801,
Celebs/29_Scarlett_Johansson_0010.jpg,non_target,2,0,2,0,0,64,64,85,,,,,,,,,,,,,,513.9402660999913,513.9402660999913,514.4391753999807,,,,,,,1,003,21,Deitado,2023-06-17_11h59.25.654,face_recognition_ERP_protocol,2022.2.5,60.09200085778801,
Celebs/21_Scarlett_Johansson_0007.jpg,non_target,2,0,2,0,0,65,65,118,,,,,,,,,,,,,,514.9394083999796,514.9394083999796,515.440349099983,,,,,,,1,003,21,Deitado,2023-06-17_11h59.25.654,face_recognition_ERP_protocol,2022.2.5,60.09200085778801,
Celebs/34_Neil_Patrick_Harris_0004.jpg,non_target,2,0,2,0,0,66,66,104,,,,,,,,,,,,,,515.946054399974,515.946054399974,516.4415881999885,,,,,,,1,003,21,Deitado,2023-06-17_11h59.25.654,face_recognition_ERP_protocol,2022.2.5,60.09200085778801,
Celebs/23_Daniel_Radcliffe_0019.jpg,target,2,0,2,0,0,67,67,6,,,,,,,,,,,,,,516.9415065999783,516.9415065999783,517.4422127999715,,,,,,,1,003,21,Deitado,2023-06-17_11h59.25.654,face_recognition_ERP_protocol,2022.2.5,60.09200085778801,
Celebs/21_Emma_Stone_0002.jpg,non_target,2,0,2,0,0,68,68,103,,,,,,,,,,,,,,517.9464799999841,517.9464799999841,518.4434737999982,,,,,,,1,003,21,Deitado,2023-06-17_11h59.25.654,face_recognition_ERP_protocol,2022.2.5,60.09200085778801,
Celebs/17_Emma_Watson_0006.jpg,non_target,2,0,2,0,0,69,69,90,,,,,,,,,,,,,,518.9448380999966,518.9448380999966,519.4442693999736,,,,,,,1,003,21,Deitado,2023-06-17_11h59.25.654,face_recognition_ERP_protocol,2022.2.5,60.09200085778801,
Celebs/37_Neil_Patrick_Harris_0010.jpg,non_target,2,0,2,0,0,70,70,93,,,,,,,,,,,,,,519.9447863999812,519.9447863999812,520.4451808999875,,,,,,,1,003,21,Deitado,2023-06-17_11h59.25.654,face_recognition_ERP_protocol,2022.2.5,60.09200085778801,
Celebs/18_Emma_Watson_0004.jpg,non_target,2,0,2,0,0,71,71,75,,,,,,,,,,,,,,520.9460777999775,520.9460777999775,521.4466579999716,,,,,,,1,003,21,Deitado,2023-06-17_11h59.25.654,face_recognition_ERP_protocol,2022.2.5,60.09200085778801,
Celebs/26_Scarlett_Johansson_0003.jpg,non_target,2,0,2,0,0,72,72,105,,,,,,,,,,,,,,521.9485089999798,521.9485089999798,522.4475827999995,,,,,,,1,003,21,Deitado,2023-06-17_11h59.25.654,face_recognition_ERP_protocol,2022.2.5,60.09200085778801,
Celebs/45_Johnny_Depp_0003.jpg,non_target,2,0,2,0,0,73,73,108,,,,,,,,,,,,,,522.9498560999928,522.9498560999928,523.4481890999887,,,,,,,1,003,21,Deitado,2023-06-17_11h59.25.654,face_recognition_ERP_protocol,2022.2.5,60.09200085778801,
Celebs/34_Neil_Patrick_Harris_0007.jpg,non_target,2,0,2,0,0,74,74,117,,,,,,,,,,,,,,523.9505939999945,523.9505939999945,524.4498641999962,,,,,,,1,003,21,Deitado,2023-06-17_11h59.25.654,face_recognition_ERP_protocol,2022.2.5,60.09200085778801,
Celebs/43_Will_Smith_0007.jpg,non_target,2,0,2,0,0,75,75,74,,,,,,,,,,,,,,524.9511583999847,524.9511583999847,525.4509490999917,,,,,,,1,003,21,Deitado,2023-06-17_11h59.25.654,face_recognition_ERP_protocol,2022.2.5,60.09200085778801,
Celebs/22_Emma_Stone_0013.jpg,non_target,2,0,2,0,0,76,76,1,,,,,,,,,,,,,,525.9546135999844,525.9546135999844,526.4519864999747,,,,,,,1,003,21,Deitado,2023-06-17_11h59.25.654,face_recognition_ERP_protocol,2022.2.5,60.09200085778801,
Celebs/54_Jackie_Chan_0001.jpg,non_target,2,0,2,0,0,77,77,7,,,,,,,,,,,,,,526.9526895999734,526.9526895999734,527.4526996999921,,,,,,,1,003,21,Deitado,2023-06-17_11h59.25.654,face_recognition_ERP_protocol,2022.2.5,60.09200085778801,
Celebs/50_Johnny_Depp_0010.jpg,non_target,2,0,2,0,0,78,78,115,,,,,,,,,,,,,,527.959792699985,527.959792699985,528.4374666999793,,,,,,,1,003,21,Deitado,2023-06-17_11h59.25.654,face_recognition_ERP_protocol,2022.2.5,60.09200085778801,
Celebs/20_Margot_Robbie_0004.jpg,non_target,2,0,2,0,0,79,79,116,,,,,,,,,,,,,,528.9430516999855,528.9430516999855,529.4385637999803,,,,,,,1,003,21,Deitado,2023-06-17_11h59.25.654,face_recognition_ERP_protocol,2022.2.5,60.09200085778801,
Celebs/21_Emma_Watson_0004.jpg,non_target,2,0,2,0,0,80,80,21,,,,,,,,,,,,,,529.9407040999795,529.9407040999795,530.4396756999777,,,,,,,1,003,21,Deitado,2023-06-17_11h59.25.654,face_recognition_ERP_protocol,2022.2.5,60.09200085778801,
Celebs/18_Daniel_Radcliffe_0008.jpg,target,2,0,2,0,0,81,81,28,,,,,,,,,,,,,,530.9673028999823,530.9673028999823,531.4403585999971,,,,,,,1,003,21,Deitado,2023-06-17_11h59.25.654,face_recognition_ERP_protocol,2022.2.5,60.09200085778801,
Celebs/48_Johnny_Depp_0005.jpg,non_target,2,0,2,0,0,82,82,54,,,,,,,,,,,,,,531.9411901999847,531.9411901999847,532.4417334999889,,,,,,,1,003,21,Deitado,2023-06-17_11h59.25.654,face_recognition_ERP_protocol,2022.2.5,60.09200085778801,
Celebs/20_Emma_Watson_0007.jpg,non_target,2,0,2,0,0,83,83,96,,,,,,,,,,,,,,532.9827314999711,532.9827314999711,533.4429721999913,,,,,,,1,003,21,Deitado,2023-06-17_11h59.25.654,face_recognition_ERP_protocol,2022.2.5,60.09200085778801,
Celebs/25_Scarlett_Johansson_0010.jpg,non_target,2,0,2,0,0,84,84,32,,,,,,,,,,,,,,533.9447807999968,533.9447807999968,534.4438605999749,,,,,,,1,003,21,Deitado,2023-06-17_11h59.25.654,face_recognition_ERP_protocol,2022.2.5,60.09200085778801,
Celebs/31_Neil_Patrick_Harris_0008.jpg,non_target,2,0,2,0,0,85,85,99,,,,,,,,,,,,,,534.9463168999937,534.9463168999937,535.4450358999893,,,,,,,1,003,21,Deitado,2023-06-17_11h59.25.654,face_recognition_ERP_protocol,2022.2.5,60.09200085778801,
Celebs/16_Margot_Robbie_0009.jpg,non_target,2,0,2,0,0,86,86,107,,,,,,,,,,,,,,535.9476060999732,535.9476060999732,536.4460937999829,,,,,,,1,003,21,Deitado,2023-06-17_11h59.25.654,face_recognition_ERP_protocol,2022.2.5,60.09200085778801,
Celebs/43_Will_Smith_0006.jpg,non_target,2,0,2,0,0,87,87,61,,,,,,,,,,,,,,536.9466820999805,536.9466820999805,537.4473838999984,,,,,,,1,003,21,Deitado,2023-06-17_11h59.25.654,face_recognition_ERP_protocol,2022.2.5,60.09200085778801,
Celebs/14_Emma_Watson_0004.jpg,non_target,2,0,2,0,0,88,88,14,,,,,,,,,,,,,,537.9501797999837,537.9501797999837,538.4484324999794,,,,,,,1,003,21,Deitado,2023-06-17_11h59.25.654,face_recognition_ERP_protocol,2022.2.5,60.09200085778801,
Celebs/16_Emma_Stone_0010.jpg,non_target,2,0,2,0,0,89,89,95,,,,,,,,,,,,,,538.9507440999732,538.9507440999732,539.4495273999928,,,,,,,1,003,21,Deitado,2023-06-17_11h59.25.654,face_recognition_ERP_protocol,2022.2.5,60.09200085778801,
Celebs/22_Margot_Robbie_0010.jpg,non_target,2,0,2,0,0,90,90,18,,,,,,,,,,,,,,539.9493518999952,539.9493518999952,540.4504748999898,,,,,,,1,003,21,Deitado,2023-06-17_11h59.25.654,face_recognition_ERP_protocol,2022.2.5,60.09200085778801,
Celebs/45_Will_Smith_0014.jpg,non_target,2,0,2,0,0,91,91,59,,,,,,,,,,,,,,540.9561644999776,540.9561644999776,541.4515854999772,,,,,,,1,003,21,Deitado,2023-06-17_11h59.25.654,face_recognition_ERP_protocol,2022.2.5,60.09200085778801,
Celebs/50_Johnny_Depp_0004.jpg,non_target,2,0,2,0,0,92,92,39,,,,,,,,,,,,,,541.952145599993,541.952145599993,542.4528832999931,,,,,,,1,003,21,Deitado,2023-06-17_11h59.25.654,face_recognition_ERP_protocol,2022.2.5,60.09200085778801,
Celebs/48_Johnny_Depp_0003.jpg,non_target,2,0,2,0,0,93,93,55,,,,,,,,,,,,,,542.9594588999753,542.9594588999753,543.4537542999897,,,,,,,1,003,21,Deitado,2023-06-17_11h59.25.654,face_recognition_ERP_protocol,2022.2.5,60.09200085778801,
Celebs/50_Jackie_Chan_0014.jpg,non_target,2,0,2,0,0,94,94,38,,,,,,,,,,,,,,543.945508099976,543.945508099976,544.4383816999907,,,,,,,1,003,21,Deitado,2023-06-17_11h59.25.654,face_recognition_ERP_protocol,2022.2.5,60.09200085778801,
Celebs/21_Margot_Robbie_0003.jpg,non_target,2,0,2,0,0,95,95,27,,,,,,,,,,,,,,544.9405842999986,544.9405842999986,545.4394912999996,,,,,,,1,003,21,Deitado,2023-06-17_11h59.25.654,face_recognition_ERP_protocol,2022.2.5,60.09200085778801,
Celebs/37_Will_Smith_0015.jpg,non_target,2,0,2,0,0,96,96,113,,,,,,,,,,,,,,545.9426240999892,545.9426240999892,546.4406227999716,,,,,,,1,003,21,Deitado,2023-06-17_11h59.25.654,face_recognition_ERP_protocol,2022.2.5,60.09200085778801,
Celebs/42_Will_Smith_0012.jpg,non_target,2,0,2,0,0,97,97,64,,,,,,,,,,,,,,546.9462315999845,546.9462315999845,547.4414852999907,,,,,,,1,003,21,Deitado,2023-06-17_11h59.25.654,face_recognition_ERP_protocol,2022.2.5,60.09200085778801,
Celebs/23_Daniel_Radcliffe_0002.jpg,target,2,0,2,0,0,98,98,77,,,,,,,,,,,,,,547.9477568999864,547.9477568999864,548.4428962999955,,,,,,,1,003,21,Deitado,2023-06-17_11h59.25.654,face_recognition_ERP_protocol,2022.2.5,60.09200085778801,
Celebs/38_Will_Smith_0013.jpg,non_target,2,0,2,0,0,99,99,13,,,,,,,,,,,,,,548.9448110999947,548.9448110999947,549.4434584999981,,,,,,,1,003,21,Deitado,2023-06-17_11h59.25.654,face_recognition_ERP_protocol,2022.2.5,60.09200085778801,
Celebs/47_Johnny_Depp_0009.jpg,non_target,2,0,2,0,0,100,100,23,,,,,,,,,,,,,,549.9451804999844,549.9451804999844,550.4445159999887,,,,,,,1,003,21,Deitado,2023-06-17_11h59.25.654,face_recognition_ERP_protocol,2022.2.5,60.09200085778801,
Celebs/18_Daniel_Radcliffe_0007.jpg,target,2,0,2,0,0,101,101,81,,,,,,,,,,,,,,550.9546070999932,550.9546070999932,551.4453634999809,,,,,,,1,003,21,Deitado,2023-06-17_11h59.25.654,face_recognition_ERP_protocol,2022.2.5,60.09200085778801,
Celebs/16_Emma_Stone_0008.jpg,non_target,2,0,2,0,0,102,102,48,,,,,,,,,,,,,,551.9484026999853,551.9484026999853,552.4471343999903,,,,,,,1,003,21,Deitado,2023-06-17_11h59.25.654,face_recognition_ERP_protocol,2022.2.5,60.09200085778801,
Celebs/44_Will_Smith_0015.jpg,non_target,2,0,2,0,0,103,103,101,,,,,,,,,,,,,,552.9491410999908,552.9491410999908,553.4482580999902,,,,,,,1,003,21,Deitado,2023-06-17_11h59.25.654,face_recognition_ERP_protocol,2022.2.5,60.09200085778801,
Celebs/40_Jim_Parsons_0004.jpg,non_target,2,0,2,0,0,104,104,73,,,,,,,,,,,,,,553.9566565999994,553.9566565999994,554.4487002999813,,,,,,,1,003,21,Deitado,2023-06-17_11h59.25.654,face_recognition_ERP_protocol,2022.2.5,60.09200085778801,
Celebs/19_Margot_Robbie_0001.jpg,non_target,2,0,2,0,0,105,105,51,,,,,,,,,,,,,,554.9555991999805,554.9555991999805,555.4503581999743,,,,,,,1,003,21,Deitado,2023-06-17_11h59.25.654,face_recognition_ERP_protocol,2022.2.5,60.09200085778801,
Celebs/45_Will_Smith_0010.jpg,non_target,2,0,2,0,0,106,106,69,,,,,,,,,,,,,,555.9531533999834,555.9531533999834,556.4514459999918,,,,,,,1,003,21,Deitado,2023-06-17_11h59.25.654,face_recognition_ERP_protocol,2022.2.5,60.09200085778801,
Celebs/17_Margot_Robbie_0012.jpg,non_target,2,0,2,0,0,107,107,67,,,,,,,,,,,,,,556.953732199996,556.953732199996,557.4526282999723,,,,,,,1,003,21,Deitado,2023-06-17_11h59.25.654,face_recognition_ERP_protocol,2022.2.5,60.09200085778801,
Celebs/58_Jackie_Chan_0005.jpg,non_target,2,0,2,0,0,108,108,3,,,,,,,,,,,,,,557.9557997999946,557.9557997999946,558.4536501999828,,,,,,,1,003,21,Deitado,2023-06-17_11h59.25.654,face_recognition_ERP_protocol,2022.2.5,60.09200085778801,
Celebs/17_Margot_Robbie_0014.jpg,non_target,2,0,2,0,0,109,109,114,,,,,,,,,,,,,,558.938611199992,558.938611199992,559.4380759999913,,,,,,,1,003,21,Deitado,2023-06-17_11h59.25.654,face_recognition_ERP_protocol,2022.2.5,60.09200085778801,
Celebs/14_Emma_Watson_0013.jpg,non_target,2,0,2,0,0,110,110,20,,,,,,,,,,,,,,559.9495664999995,559.9495664999995,560.4391550999717,,,,,,,1,003,21,Deitado,2023-06-17_11h59.25.654,face_recognition_ERP_protocol,2022.2.5,60.09200085778801,
Celebs/49_Johnny_Depp_0013.jpg,non_target,2,0,2,0,0,111,111,33,,,,,,,,,,,,,,560.9421710999741,560.9421710999741,561.4403507999959,,,,,,,1,003,21,Deitado,2023-06-17_11h59.25.654,face_recognition_ERP_protocol,2022.2.5,60.09200085778801,
Celebs/32_Jim_Parsons_0016.jpg,non_target,2,0,2,0,0,112,112,102,,,,,,,,,,,,,,561.9426461999828,561.9426461999828,562.4409332999785,,,,,,,1,003,21,Deitado,2023-06-17_11h59.25.654,face_recognition_ERP_protocol,2022.2.5,60.09200085778801,
Celebs/20_Scarlett_Johansson_0011.jpg,non_target,2,0,2,0,0,113,113,109,,,,,,,,,,,,,,562.9435121999995,562.9435121999995,563.4424337999953,,,,,,,1,003,21,Deitado,2023-06-17_11h59.25.654,face_recognition_ERP_protocol,2022.2.5,60.09200085778801,
Celebs/14_Emma_Watson_0008.jpg,non_target,2,0,2,0,0,114,114,36,,,,,,,,,,,,,,563.9462426999817,563.9462426999817,564.4433570999827,,,,,,,1,003,21,Deitado,2023-06-17_11h59.25.654,face_recognition_ERP_protocol,2022.2.5,60.09200085778801,
Celebs/19_Emma_Stone_0006.jpg,non_target,2,0,2,0,0,115,115,66,,,,,,,,,,,,,,564.9468529999722,564.9468529999722,565.4446501999919,,,,,,,1,003,21,Deitado,2023-06-17_11h59.25.654,face_recognition_ERP_protocol,2022.2.5,60.09200085778801,
Celebs/16_Emma_Stone_0014.jpg,non_target,2,0,2,0,0,116,116,40,,,,,,,,,,,,,,565.9451650999836,565.9451650999836,566.4479019999853,,,,,,,1,003,21,Deitado,2023-06-17_11h59.25.654,face_recognition_ERP_protocol,2022.2.5,60.09200085778801,
Celebs/54_Jackie_Chan_0014.jpg,non_target,2,0,2,0,0,117,117,111,,,,,,,,,,,,,,566.9466492999927,566.9466492999927,567.4466618999722,,,,,,,1,003,21,Deitado,2023-06-17_11h59.25.654,face_recognition_ERP_protocol,2022.2.5,60.09200085778801,
Celebs/33_Neil_Patrick_Harris_0011.jpg,non_target,2,0,2,0,0,118,118,112,,,,,,,,,,,,,,567.9474426999805,567.9474426999805,568.4480358999863,,,,,,,1,003,21,Deitado,2023-06-17_11h59.25.654,face_recognition_ERP_protocol,2022.2.5,60.09200085778801,
Celebs/39_Jim_Parsons_0004.jpg,non_target,2,0,2,0,0,119,119,88,,,,,,,,,,,,,,568.950479399995,568.950479399995,569.4490271999966,,,,,,,1,003,21,Deitado,2023-06-17_11h59.25.654,face_recognition_ERP_protocol,2022.2.5,60.09200085778801,
Celebs/50_Johnny_Depp_0004.jpg,non_target,3,0,3,0,0,0,0,39,,,,,,,,,,,,,,574.5369381999772,574.5369381999772,575.005079799972,569.9497540999728,569.9497540999728,space,4.512300200032769,,,1,003,21,Deitado,2023-06-17_11h59.25.654,face_recognition_ERP_protocol,2022.2.5,60.09200085778801,
Celebs/47_Johnny_Depp_0009.jpg,non_target,3,0,3,0,0,1,1,23,,,,,,,,,,,,,,575.5058498999861,575.5058498999861,576.006090299983,,,,,,,1,003,21,Deitado,2023-06-17_11h59.25.654,face_recognition_ERP_protocol,2022.2.5,60.09200085778801,
Celebs/44_Will_Smith_0007.jpg,non_target,3,0,3,0,0,2,2,65,,,,,,,,,,,,,,576.4918020999758,576.4918020999758,576.9904200999881,,,,,,,1,003,21,Deitado,2023-06-17_11h59.25.654,face_recognition_ERP_protocol,2022.2.5,60.09200085778801,
Celebs/48_Johnny_Depp_0003.jpg,non_target,3,0,3,0,0,3,3,55,,,,,,,,,,,,,,577.4921674999932,577.4921674999932,577.9914997999731,,,,,,,1,003,21,Deitado,2023-06-17_11h59.25.654,face_recognition_ERP_protocol,2022.2.5,60.09200085778801,
Celebs/21_Emma_Stone_0002.jpg,non_target,3,0,3,0,0,4,4,103,,,,,,,,,,,,,,578.4941485999734,578.4941485999734,578.9929946999764,,,,,,,1,003,21,Deitado,2023-06-17_11h59.25.654,face_recognition_ERP_protocol,2022.2.5,60.09200085778801,
Celebs/43_Will_Smith_0007.jpg,non_target,3,0,3,0,0,5,5,74,,,,,,,,,,,,,,579.4932801999967,579.4932801999967,579.9936781999713,,,,,,,1,003,21,Deitado,2023-06-17_11h59.25.654,face_recognition_ERP_protocol,2022.2.5,60.09200085778801,
Celebs/32_Jim_Parsons_0018.jpg,non_target,3,0,3,0,0,6,6,46,,,,,,,,,,,,,,580.4934429999848,580.4934429999848,580.9949003999936,,,,,,,1,003,21,Deitado,2023-06-17_11h59.25.654,face_recognition_ERP_protocol,2022.2.5,60.09200085778801,
Celebs/50_Johnny_Depp_0008.jpg,non_target,3,0,3,0,0,7,7,84,,,,,,,,,,,,,,581.4966001999856,581.4966001999856,581.9960570999829,,,,,,,1,003,21,Deitado,2023-06-17_11h59.25.654,face_recognition_ERP_protocol,2022.2.5,60.09200085778801,
Celebs/32_Jim_Parsons_0016.jpg,non_target,3,0,3,0,0,8,8,102,,,,,,,,,,,,,,582.4969534999982,582.4969534999982,582.9969787999871,,,,,,,1,003,21,Deitado,2023-06-17_11h59.25.654,face_recognition_ERP_protocol,2022.2.5,60.09200085778801,
Celebs/36_Neil_Patrick_Harris_0007.jpg,non_target,3,0,3,0,0,9,9,5,,,,,,,,,,,,,,583.4994165999815,583.4994165999815,583.9976566999976,,,,,,,1,003,21,Deitado,2023-06-17_11h59.25.654,face_recognition_ERP_protocol,2022.2.5,60.09200085778801,
Celebs/50_Johnny_Depp_0010.jpg,non_target,3,0,3,0,0,10,10,115,,,,,,,,,,,,,,584.4997476999997,584.4997476999997,584.9991048999946,,,,,,,1,003,21,Deitado,2023-06-17_11h59.25.654,face_recognition_ERP_protocol,2022.2.5,60.09200085778801,
Celebs/23_Emma_Stone_0014.jpg,non_target,3,0,3,0,0,11,11,12,,,,,,,,,,,,,,585.501030799991,585.501030799991,586.0004553999752,,,,,,,1,003,21,Deitado,2023-06-17_11h59.25.654,face_recognition_ERP_protocol,2022.2.5,60.09200085778801,
Celebs/48_Johnny_Depp_0001.jpg,non_target,3,0,3,0,0,12,12,106,,,,,,,,,,,,,,586.5005030999891,586.5005030999891,587.0013762999733,,,,,,,1,003,21,Deitado,2023-06-17_11h59.25.654,face_recognition_ERP_protocol,2022.2.5,60.09200085778801,
Celebs/21_Scarlett_Johansson_0007.jpg,non_target,3,0,3,0,0,13,13,118,,,,,,,,,,,,,,587.5017220999871,587.5017220999871,588.0024023999867,,,,,,,1,003,21,Deitado,2023-06-17_11h59.25.654,face_recognition_ERP_protocol,2022.2.5,60.09200085778801,
Celebs/14_Emma_Watson_0005.jpg,non_target,3,0,3,0,0,14,14,26,,,,,,,,,,,,,,588.5044626999879,588.5044626999879,589.0037810999784,,,,,,,1,003,21,Deitado,2023-06-17_11h59.25.654,face_recognition_ERP_protocol,2022.2.5,60.09200085778801,
Celebs/18_Daniel_Radcliffe_0008.jpg,target,3,0,3,0,0,15,15,28,,,,,,,,,,,,,,589.5046074999846,589.5046074999846,590.0048489999899,,,,,,,1,003,21,Deitado,2023-06-17_11h59.25.654,face_recognition_ERP_protocol,2022.2.5,60.09200085778801,
Celebs/22_Scarlett_Johansson_0005.jpg,non_target,3,0,3,0,0,16,16,44,,,,,,,,,,,,,,590.506799499999,590.506799499999,591.0058908999781,,,,,,,1,003,21,Deitado,2023-06-17_11h59.25.654,face_recognition_ERP_protocol,2022.2.5,60.09200085778801,
Celebs/37_Will_Smith_0015.jpg,non_target,3,0,3,0,0,17,17,113,,,,,,,,,,,,,,591.4917662999942,591.4917662999942,591.9903752999962,,,,,,,1,003,21,Deitado,2023-06-17_11h59.25.654,face_recognition_ERP_protocol,2022.2.5,60.09200085778801,
Celebs/45_Johnny_Depp_0003.jpg,non_target,3,0,3,0,0,18,18,108,,,,,,,,,,,,,,592.4906993999903,592.4906993999903,592.991255699977,,,,,,,1,003,21,Deitado,2023-06-17_11h59.25.654,face_recognition_ERP_protocol,2022.2.5,60.09200085778801,
Celebs/23_Daniel_Radcliffe_0002.jpg,target,3,0,3,0,0,19,19,77,,,,,,,,,,,,,,593.4931898999785,593.4931898999785,593.9926213999861,,,,,,,1,003,21,Deitado,2023-06-17_11h59.25.654,face_recognition_ERP_protocol,2022.2.5,60.09200085778801,
Celebs/17_Emma_Watson_0006.jpg,non_target,3,0,3,0,0,20,20,90,,,,,,,,,,,,,,594.4944189999951,594.4944189999951,594.9931607999897,,,,,,,1,003,21,Deitado,2023-06-17_11h59.25.654,face_recognition_ERP_protocol,2022.2.5,60.09200085778801,
Celebs/43_Will_Smith_0006.jpg,non_target,3,0,3,0,0,21,21,61,,,,,,,,,,,,,,595.4956779999775,595.4956779999775,595.994560799998,,,,,,,1,003,21,Deitado,2023-06-17_11h59.25.654,face_recognition_ERP_protocol,2022.2.5,60.09200085778801,
Celebs/21_Emma_Stone_0003.jpg,non_target,3,0,3,0,0,22,22,25,,,,,,,,,,,,,,596.4963937999855,596.4963937999855,596.995698099985,,,,,,,1,003,21,Deitado,2023-06-17_11h59.25.654,face_recognition_ERP_protocol,2022.2.5,60.09200085778801,
Celebs/43_Will_Smith_0010.jpg,non_target,3,0,3,0,0,23,23,22,,,,,,,,,,,,,,597.497384199989,597.497384199989,597.9971200999862,,,,,,,1,003,21,Deitado,2023-06-17_11h59.25.654,face_recognition_ERP_protocol,2022.2.5,60.09200085778801,
Celebs/33_Jim_Parsons_0011.jpg,non_target,3,0,3,0,0,24,24,34,,,,,,,,,,,,,,598.5033937999979,598.5033937999979,598.9976383999747,,,,,,,1,003,21,Deitado,2023-06-17_11h59.25.654,face_recognition_ERP_protocol,2022.2.5,60.09200085778801,
Celebs/29_Scarlett_Johansson_0010.jpg,non_target,3,0,3,0,0,25,25,85,,,,,,,,,,,,,,599.4998199999973,599.4998199999973,599.9985145999817,,,,,,,1,003,21,Deitado,2023-06-17_11h59.25.654,face_recognition_ERP_protocol,2022.2.5,60.09200085778801,
Celebs/39_Neil_Patrick_Harris_0001.jpg,non_target,3,0,3,0,0,26,26,4,,,,,,,,,,,,,,600.5003836999822,600.5003836999822,600.9996997999842,,,,,,,1,003,21,Deitado,2023-06-17_11h59.25.654,face_recognition_ERP_protocol,2022.2.5,60.09200085778801,
Celebs/28_Scarlett_Johansson_0005.jpg,non_target,3,0,3,0,0,27,27,50,,,,,,,,,,,,,,601.5025201999815,601.5025201999815,602.001294799993,,,,,,,1,003,21,Deitado,2023-06-17_11h59.25.654,face_recognition_ERP_protocol,2022.2.5,60.09200085778801,
Celebs/31_Neil_Patrick_Harris_0008.jpg,non_target,3,0,3,0,0,28,28,99,,,,,,,,,,,,,,602.5041573999915,602.5041573999915,603.0021588999953,,,,,,,1,003,21,Deitado,2023-06-17_11h59.25.654,face_recognition_ERP_protocol,2022.2.5,60.09200085778801,
Celebs/37_Neil_Patrick_Harris_0010.jpg,non_target,3,0,3,0,0,29,29,93,,,,,,,,,,,,,,603.5026121999836,603.5026121999836,604.0034227999859,,,,,,,1,003,21,Deitado,2023-06-17_11h59.25.654,face_recognition_ERP_protocol,2022.2.5,60.09200085778801,
Celebs/18_Daniel_Radcliffe_0007.jpg,target,3,0,3,0,0,30,30,81,,,,,,,,,,,,,,604.5049374999944,604.5049374999944,605.0045316999895,,,,,,,1,003,21,Deitado,2023-06-17_11h59.25.654,face_recognition_ERP_protocol,2022.2.5,60.09200085778801,
Celebs/19_Emma_Stone_0006.jpg,non_target,3,0,3,0,0,31,31,66,,,,,,,,,,,,,,605.5065407999791,605.5065407999791,606.0059052999713,,,,,,,1,003,21,Deitado,2023-06-17_11h59.25.654,face_recognition_ERP_protocol,2022.2.5,60.09200085778801,
Celebs/26_Scarlett_Johansson_0008.jpg,non_target,3,0,3,0,0,32,32,47,,,,,,,,,,,,,,606.5079075999965,606.5079075999965,606.990061199991,,,,,,,1,003,21,Deitado,2023-06-17_11h59.25.654,face_recognition_ERP_protocol,2022.2.5,60.09200085778801,
Celebs/22_Emma_Watson_0001.jpg,non_target,3,0,3,0,0,33,33,58,,,,,,,,,,,,,,607.4924529999844,607.4924529999844,607.9911910999799,,,,,,,1,003,21,Deitado,2023-06-17_11h59.25.654,face_recognition_ERP_protocol,2022.2.5,60.09200085778801,
Celebs/24_Scarlett_Johansson_0001.jpg,non_target,3,0,3,0,0,34,34,10,,,,,,,,,,,,,,608.4914979999885,608.4914979999885,608.9920412999927,,,,,,,1,003,21,Deitado,2023-06-17_11h59.25.654,face_recognition_ERP_protocol,2022.2.5,60.09200085778801,
Celebs/37_Neil_Patrick_Harris_0014.jpg,non_target,3,0,3,0,0,35,35,37,,,,,,,,,,,,,,609.4940616999811,609.4940616999811,609.9933314999798,,,,,,,1,003,21,Deitado,2023-06-17_11h59.25.654,face_recognition_ERP_protocol,2022.2.5,60.09200085778801,
Celebs/20_Scarlett_Johansson_0011.jpg,non_target,3,0,3,0,0,36,36,109,,,,,,,,,,,,,,610.4945757999958,610.4945757999958,610.9944025999866,,,,,,,1,003,21,Deitado,2023-06-17_11h59.25.654,face_recognition_ERP_protocol,2022.2.5,60.09200085778801,
Celebs/38_Jim_Parsons_0003.jpg,non_target,3,0,3,0,0,37,37,53,,,,,,,,,,,,,,611.4944242999773,611.4944242999773,611.9955695999961,,,,,,,1,003,21,Deitado,2023-06-17_11h59.25.654,face_recognition_ERP_protocol,2022.2.5,60.09200085778801,
Celebs/54_Jackie_Chan_0001.jpg,non_target,3,0,3,0,0,38,38,7,,,,,,,,,,,,,,612.4950227999943,612.4950227999943,612.9967494999873,,,,,,,1,003,21,Deitado,2023-06-17_11h59.25.654,face_recognition_ERP_protocol,2022.2.5,60.09200085778801,
Celebs/21_Daniel_Radcliffe_0008.jpg,target,3,0,3,0,0,39,39,16,,,,,,,,,,,,,,613.498543499998,613.498543499998,613.997524299979,,,,,,,1,003,21,Deitado,2023-06-17_11h59.25.654,face_recognition_ERP_protocol,2022.2.5,60.09200085778801,
Celebs/57_Jackie_Chan_0008.jpg,non_target,3,0,3,0,0,40,40,72,,,,,,,,,,,,,,614.499640999973,614.499640999973,614.9987935999816,,,,,,,1,003,21,Deitado,2023-06-17_11h59.25.654,face_recognition_ERP_protocol,2022.2.5,60.09200085778801,
Celebs/16_Emma_Stone_0010.jpg,non_target,3,0,3,0,0,41,41,95,,,,,,,,,,,,,,615.5015306999849,615.5015306999849,615.9998921999941,,,,,,,1,003,21,Deitado,2023-06-17_11h59.25.654,face_recognition_ERP_protocol,2022.2.5,60.09200085778801,
Celebs/34_Neil_Patrick_Harris_0007.jpg,non_target,3,0,3,0,0,42,42,117,,,,,,,,,,,,,,616.5015188999823,616.5015188999823,617.0009431999933,,,,,,,1,003,21,Deitado,2023-06-17_11h59.25.654,face_recognition_ERP_protocol,2022.2.5,60.09200085778801,
Celebs/20_Emma_Watson_0007.jpg,non_target,3,0,3,0,0,43,43,96,,,,,,,,,,,,,,617.5026887999848,617.5026887999848,618.0020859999931,,,,,,,1,003,21,Deitado,2023-06-17_11h59.25.654,face_recognition_ERP_protocol,2022.2.5,60.09200085778801,
Celebs/18_Emma_Stone_0016.jpg,non_target,3,0,3,0,0,44,44,52,,,,,,,,,,,,,,618.5038748999941,618.5038748999941,619.0031860999879,,,,,,,1,003,21,Deitado,2023-06-17_11h59.25.654,face_recognition_ERP_protocol,2022.2.5,60.09200085778801,
Celebs/38_Will_Smith_0013.jpg,non_target,3,0,3,0,0,45,45,13,,,,,,,,,,,,,,619.5049530999968,619.5049530999968,620.0040939999744,,,,,,,1,003,21,Deitado,2023-06-17_11h59.25.654,face_recognition_ERP_protocol,2022.2.5,60.09200085778801,
Celebs/16_Emma_Stone_0014.jpg,non_target,3,0,3,0,0,46,46,40,,,,,,,,,,,,,,620.5056597999937,620.5056597999937,621.0051676999719,,,,,,,1,003,21,Deitado,2023-06-17_11h59.25.654,face_recognition_ERP_protocol,2022.2.5,60.09200085778801,
Celebs/14_Emma_Watson_0008.jpg,non_target,3,0,3,0,0,47,47,36,,,,,,,,,,,,,,621.5068523999944,621.5068523999944,621.9897381999763,,,,,,,1,003,21,Deitado,2023-06-17_11h59.25.654,face_recognition_ERP_protocol,2022.2.5,60.09200085778801,
Celebs/14_Emma_Watson_0015.jpg,non_target,3,0,3,0,0,48,48,56,,,,,,,,,,,,,,622.4914742999827,622.4914742999827,622.9903806999791,,,,,,,1,003,21,Deitado,2023-06-17_11h59.25.654,face_recognition_ERP_protocol,2022.2.5,60.09200085778801,
Celebs/51_Jackie_Chan_0006.jpg,non_target,3,0,3,0,0,49,49,97,,,,,,,,,,,,,,623.4926024999877,623.4926024999877,623.9920057999843,,,,,,,1,003,21,Deitado,2023-06-17_11h59.25.654,face_recognition_ERP_protocol,2022.2.5,60.09200085778801,
Celebs/39_Jim_Parsons_0010.jpg,non_target,3,0,3,0,0,50,50,0,,,,,,,,,,,,,,624.4938882999995,624.4938882999995,624.9930248999735,,,,,,,1,003,21,Deitado,2023-06-17_11h59.25.654,face_recognition_ERP_protocol,2022.2.5,60.09200085778801,
Celebs/36_Neil_Patrick_Harris_0010.jpg,non_target,3,0,3,0,0,51,51,79,,,,,,,,,,,,,,625.4925178999838,625.4925178999838,625.9940108999726,,,,,,,1,003,21,Deitado,2023-06-17_11h59.25.654,face_recognition_ERP_protocol,2022.2.5,60.09200085778801,
Celebs/17_Margot_Robbie_0012.jpg,non_target,3,0,3,0,0,52,52,67,,,,,,,,,,,,,,626.4957261999953,626.4957261999953,626.9951893999823,,,,,,,1,003,21,Deitado,2023-06-17_11h59.25.654,face_recognition_ERP_protocol,2022.2.5,60.09200085778801,
Celebs/44_Will_Smith_0006.jpg,non_target,3,0,3,0,0,53,53,41,,,,,,,,,,,,,,627.4954803999863,627.4954803999863,627.9960996999871,,,,,,,1,003,21,Deitado,2023-06-17_11h59.25.654,face_recognition_ERP_protocol,2022.2.5,60.09200085778801,
Celebs/17_Daniel_Radcliffe_0007.jpg,target,3,0,3,0,0,54,54,19,,,,,,,,,,,,,,628.5031612999737,628.5031612999737,628.997149999981,,,,,,,1,003,21,Deitado,2023-06-17_11h59.25.654,face_recognition_ERP_protocol,2022.2.5,60.09200085778801,
Celebs/21_Daniel_Radcliffe_0009.jpg,target,3,0,3,0,0,55,55,83,,,,,,,,,,,,,,629.5038713999966,629.5038713999966,629.9983382999781,,,,,,,1,003,21,Deitado,2023-06-17_11h59.25.654,face_recognition_ERP_protocol,2022.2.5,60.09200085778801,
Celebs/58_Jackie_Chan_0005.jpg,non_target,3,0,3,0,0,56,56,3,,,,,,,,,,,,,,630.4996576999838,630.4996576999838,630.9994516999868,,,,,,,1,003,21,Deitado,2023-06-17_11h59.25.654,face_recognition_ERP_protocol,2022.2.5,60.09200085778801,
Celebs/16_Emma_Stone_0008.jpg,non_target,3,0,3,0,0,57,57,48,,,,,,,,,,,,,,631.5013159999799,631.5013159999799,632.0007537999772,,,,,,,1,003,21,Deitado,2023-06-17_11h59.25.654,face_recognition_ERP_protocol,2022.2.5,60.09200085778801,
Celebs/22_Emma_Watson_0010.jpg,non_target,3,0,3,0,0,58,58,11,,,,,,,,,,,,,,632.5013037999743,632.5013037999743,633.0014620999864,,,,,,,1,003,21,Deitado,2023-06-17_11h59.25.654,face_recognition_ERP_protocol,2022.2.5,60.09200085778801,
