image,stimulus,trial_block.thisRepN,trial_block.thisTrialN,trial_block.thisN,trial_block.thisIndex,trials.thisRepN,trials.thisTrialN,trials.thisN,trials.thisIndex,welcome_text.started,instructions_text.started,spacebar_key.started,spacebar_key.keys,spacebar_key.rt,eye_text.started,eye_text.stopped,text.started,text.stopped,closedEyes_text.started,beep.started,closedEyes_text.stopped,trialImage.started,polygon.started,blank_text.started,trialBlockText.started,new_trialblock.started,new_trialblock.keys,new_trialblock.rt,blank_text.stopped,trialImage.stopped,polygon.stopped,goodbye_text.started,participant,session,age,gender,date,expName,psychopyVersion,frameRate,
,,,,,,,,,,33.96865510000498,35.97095739998622,35.97095739998622,space,44.46467320001102,,,,,,,,,,,,,,,,,,,1,009,21,SentadoSom,2023-06-17_13h21.11.047,face_recognition_ERP_protocol,2022.2.5,59.96548387342429,
Celebs/54_Jackie_Chan_0014.jpg,non_target,0,0,0,0,0,0,0,111,,,,,,80.45297169999685,95.45272349999868,95.45272349999868,110.45230549998814,110.45230549998814,125.45212028000678,125.45224799998687,125.56885280000279,125.56885280000279,125.98618519998854,,,,,,,,,1,009,21,SentadoSom,2023-06-17_13h21.11.047,face_recognition_ERP_protocol,2022.2.5,59.96548387342429,
Celebs/21_Daniel_Radcliffe_0002.jpg,target,0,0,0,0,0,1,1,60,,,,,,,,,,,,,126.47086420000414,126.47086420000414,126.97052109998185,,,,,,,,,1,009,21,SentadoSom,2023-06-17_13h21.11.047,face_recognition_ERP_protocol,2022.2.5,59.96548387342429,
Celebs/39_Jim_Parsons_0004.jpg,non_target,0,0,0,0,0,2,2,88,,,,,,,,,,,,,127.47085379998316,127.47085379998316,127.97157309998875,,,,,,,,,1,009,21,SentadoSom,2023-06-17_13h21.11.047,face_recognition_ERP_protocol,2022.2.5,59.96548387342429,
Celebs/47_Johnny_Depp_0009.jpg,non_target,0,0,0,0,0,3,3,23,,,,,,,,,,,,,128.4742266999965,128.4742266999965,128.97662259999197,,,,,,,,,1,009,21,SentadoSom,2023-06-17_13h21.11.047,face_recognition_ERP_protocol,2022.2.5,59.96548387342429,
Celebs/43_Will_Smith_0010.jpg,non_target,0,0,0,0,0,4,4,22,,,,,,,,,,,,,129.4899138000037,129.4899138000037,129.9738362999924,,,,,,,,,1,009,21,SentadoSom,2023-06-17_13h21.11.047,face_recognition_ERP_protocol,2022.2.5,59.96548387342429,
Celebs/14_Emma_Watson_0008.jpg,non_target,0,0,0,0,0,5,5,36,,,,,,,,,,,,,130.4760968000046,130.4760968000046,130.97880240000086,,,,,,,,,1,009,21,SentadoSom,2023-06-17_13h21.11.047,face_recognition_ERP_protocol,2022.2.5,59.96548387342429,
Celebs/28_Scarlett_Johansson_0005.jpg,non_target,0,0,0,0,0,6,6,50,,,,,,,,,,,,,131.49212579999585,131.49212579999585,131.97611329998472,,,,,,,,,1,009,21,SentadoSom,2023-06-17_13h21.11.047,face_recognition_ERP_protocol,2022.2.5,59.96548387342429,
Celebs/21_Daniel_Radcliffe_0008.jpg,target,0,0,0,0,0,7,7,16,,,,,,,,,,,,,132.47762980000698,132.47762980000698,132.97712009999668,,,,,,,,,1,009,21,SentadoSom,2023-06-17_13h21.11.047,face_recognition_ERP_protocol,2022.2.5,59.96548387342429,
Celebs/18_Daniel_Radcliffe_0007.jpg,target,0,0,0,0,0,8,8,81,,,,,,,,,,,,,133.47741520000272,133.47741520000272,133.97810639999807,,,,,,,,,1,009,21,SentadoSom,2023-06-17_13h21.11.047,face_recognition_ERP_protocol,2022.2.5,59.96548387342429,
Celebs/43_Will_Smith_0006.jpg,non_target,0,0,0,0,0,9,9,61,,,,,,,,,,,,,134.48003079998307,134.48003079998307,134.97914710000623,,,,,,,,,1,009,21,SentadoSom,2023-06-17_13h21.11.047,face_recognition_ERP_protocol,2022.2.5,59.96548387342429,
Celebs/26_Scarlett_Johansson_0008.jpg,non_target,0,0,0,0,0,10,10,47,,,,,,,,,,,,,135.4805864999944,135.4805864999944,135.98041289998218,,,,,,,,,1,009,21,SentadoSom,2023-06-17_13h21.11.047,face_recognition_ERP_protocol,2022.2.5,59.96548387342429,
Celebs/29_Scarlett_Johansson_0016.jpg,non_target,0,0,0,0,0,11,11,2,,,,,,,,,,,,,136.4808289000066,136.4808289000066,136.98132339998847,,,,,,,,,1,009,21,SentadoSom,2023-06-17_13h21.11.047,face_recognition_ERP_protocol,2022.2.5,59.96548387342429,
Celebs/16_Emma_Stone_0014.jpg,non_target,0,0,0,0,0,12,12,40,,,,,,,,,,,,,137.48320550000062,137.48320550000062,137.98255809998955,,,,,,,,,1,009,21,SentadoSom,2023-06-17_13h21.11.047,face_recognition_ERP_protocol,2022.2.5,59.96548387342429,
Celebs/48_Johnny_Depp_0001.jpg,non_target,0,0,0,0,0,13,13,106,,,,,,,,,,,,,138.48298259999137,138.48298259999137,138.9836285999918,,,,,,,,,1,009,21,SentadoSom,2023-06-17_13h21.11.047,face_recognition_ERP_protocol,2022.2.5,59.96548387342429,
Celebs/45_Will_Smith_0010.jpg,non_target,0,0,0,0,0,14,14,69,,,,,,,,,,,,,139.48400569998194,139.48400569998194,139.98474019998685,,,,,,,,,1,009,21,SentadoSom,2023-06-17_13h21.11.047,face_recognition_ERP_protocol,2022.2.5,59.96548387342429,
Celebs/45_Johnny_Depp_0003.jpg,non_target,0,0,0,0,0,15,15,108,,,,,,,,,,,,,140.48641290000523,140.48641290000523,140.98588870000094,,,,,,,,,1,009,21,SentadoSom,2023-06-17_13h21.11.047,face_recognition_ERP_protocol,2022.2.5,59.96548387342429,
Celebs/31_Neil_Patrick_Harris_0008.jpg,non_target,0,0,0,0,0,16,16,99,,,,,,,,,,,,,141.4880170999968,141.4880170999968,141.97413159999996,,,,,,,,,1,009,21,SentadoSom,2023-06-17_13h21.11.047,face_recognition_ERP_protocol,2022.2.5,59.96548387342429,
Celebs/22_Emma_Watson_0003.jpg,non_target,0,0,0,0,0,17,17,91,,,,,,,,,,,,,142.48744179998175,142.48744179998175,142.9713597999944,,,,,,,,,1,009,21,SentadoSom,2023-06-17_13h21.11.047,face_recognition_ERP_protocol,2022.2.5,59.96548387342429,
Celebs/19_Emma_Stone_0006.jpg,non_target,0,0,0,0,0,18,18,66,,,,,,,,,,,,,143.47306940000271,143.47306940000271,143.97242149998783,,,,,,,,,1,009,21,SentadoSom,2023-06-17_13h21.11.047,face_recognition_ERP_protocol,2022.2.5,59.96548387342429,
Celebs/14_Emma_Watson_0004.jpg,non_target,0,0,0,0,0,19,19,14,,,,,,,,,,,,,144.47373609998613,144.47373609998613,144.9734632000036,,,,,,,,,1,009,21,SentadoSom,2023-06-17_13h21.11.047,face_recognition_ERP_protocol,2022.2.5,59.96548387342429,
Celebs/38_Will_Smith_0013.jpg,non_target,0,0,0,0,0,20,20,13,,,,,,,,,,,,,145.47419139998965,145.47419139998965,145.97473909999826,,,,,,,,,1,009,21,SentadoSom,2023-06-17_13h21.11.047,face_recognition_ERP_protocol,2022.2.5,59.96548387342429,
Celebs/21_Scarlett_Johansson_0007.jpg,non_target,0,0,0,0,0,21,21,118,,,,,,,,,,,,,146.49182569998084,146.49182569998084,146.97562300000573,,,,,,,,,1,009,21,SentadoSom,2023-06-17_13h21.11.047,face_recognition_ERP_protocol,2022.2.5,59.96548387342429,
Celebs/36_Jim_Parsons_0011.jpg,non_target,0,0,0,0,0,22,22,86,,,,,,,,,,,,,147.4770423999871,147.4770423999871,147.97682929999428,,,,,,,,,1,009,21,SentadoSom,2023-06-17_13h21.11.047,face_recognition_ERP_protocol,2022.2.5,59.96548387342429,
Celebs/38_Jim_Parsons_0003.jpg,non_target,0,0,0,0,0,23,23,53,,,,,,,,,,,,,148.47775049999473,148.47775049999473,148.97784559999127,,,,,,,,,1,009,21,SentadoSom,2023-06-17_13h21.11.047,face_recognition_ERP_protocol,2022.2.5,59.96548387342429,
Celebs/39_Neil_Patrick_Harris_0001.jpg,non_target,0,0,0,0,0,24,24,4,,,,,,,,,,,,,149.47917909998796,149.47917909998796,149.97898200000054,,,,,,,,,1,009,21,SentadoSom,2023-06-17_13h21.11.047,face_recognition_ERP_protocol,2022.2.5,59.96548387342429,
Celebs/20_Margot_Robbie_0006.jpg,non_target,0,0,0,0,0,25,25,35,,,,,,,,,,,,,150.48038009999436,150.48038009999436,150.98007409999263,,,,,,,,,1,009,21,SentadoSom,2023-06-17_13h21.11.047,face_recognition_ERP_protocol,2022.2.5,59.96548387342429,
Celebs/38_Neil_Patrick_Harris_0006.jpg,non_target,0,0,0,0,0,26,26,31,,,,,,,,,,,,,151.48275239998475,151.48275239998475,151.98522529998445,,,,,,,,,1,009,21,SentadoSom,2023-06-17_13h21.11.047,face_recognition_ERP_protocol,2022.2.5,59.96548387342429,
Celebs/54_Jackie_Chan_0001.jpg,non_target,0,0,0,0,0,27,27,7,,,,,,,,,,,,,152.48644829998375,152.48644829998375,152.98623959999532,,,,,,,,,1,009,21,SentadoSom,2023-06-17_13h21.11.047,face_recognition_ERP_protocol,2022.2.5,59.96548387342429,
Celebs/14_Emma_Watson_0013.jpg,non_target,0,0,0,0,0,28,28,20,,,,,,,,,,,,,153.4829230000032,153.4829230000032,153.98340430000098,,,,,,,,,1,009,21,SentadoSom,2023-06-17_13h21.11.047,face_recognition_ERP_protocol,2022.2.5,59.96548387342429,
Celebs/21_Daniel_Radcliffe_0009.jpg,target,0,0,0,0,0,29,29,83,,,,,,,,,,,,,154.4856848999916,154.4856848999916,154.9716409999819,,,,,,,,,1,009,21,SentadoSom,2023-06-17_13h21.11.047,face_recognition_ERP_protocol,2022.2.5,59.96548387342429,
Celebs/21_Margot_Robbie_0003.jpg,non_target,0,0,0,0,0,30,30,27,,,,,,,,,,,,,155.50174599999445,155.50174599999445,155.9855099999986,,,,,,,,,1,009,21,SentadoSom,2023-06-17_13h21.11.047,face_recognition_ERP_protocol,2022.2.5,59.96548387342429,
Celebs/57_Jackie_Chan_0010.jpg,non_target,0,0,0,0,0,31,31,62,,,,,,,,,,,,,156.4882348999963,156.4882348999963,156.9739377000078,,,,,,,,,1,009,21,SentadoSom,2023-06-17_13h21.11.047,face_recognition_ERP_protocol,2022.2.5,59.96548387342429,
Celebs/50_Jackie_Chan_0012.jpg,non_target,0,0,0,0,0,32,32,43,,,,,,,,,,,,,157.48723189998418,157.48723189998418,157.9711047000019,,,,,,,,,1,009,21,SentadoSom,2023-06-17_13h21.11.047,face_recognition_ERP_protocol,2022.2.5,59.96548387342429,
Celebs/57_Jackie_Chan_0008.jpg,non_target,0,0,0,0,0,33,33,72,,,,,,,,,,,,,158.48820769999293,158.48820769999293,158.97206759999972,,,,,,,,,1,009,21,SentadoSom,2023-06-17_13h21.11.047,face_recognition_ERP_protocol,2022.2.5,59.96548387342429,
Celebs/19_Margot_Robbie_0001.jpg,non_target,0,0,0,0,0,34,34,51,,,,,,,,,,,,,159.47244250000222,159.47244250000222,159.973218500003,,,,,,,,,1,009,21,SentadoSom,2023-06-17_13h21.11.047,face_recognition_ERP_protocol,2022.2.5,59.96548387342429,
Celebs/14_Emma_Watson_0005.jpg,non_target,0,0,0,0,0,35,35,26,,,,,,,,,,,,,160.47538669998175,160.47538669998175,160.97833690000698,,,,,,,,,1,009,21,SentadoSom,2023-06-17_13h21.11.047,face_recognition_ERP_protocol,2022.2.5,59.96548387342429,
Celebs/32_Jim_Parsons_0010.jpg,non_target,0,0,0,0,0,36,36,98,,,,,,,,,,,,,161.49162429998978,161.49162429998978,161.97542249999242,,,,,,,,,1,009,21,SentadoSom,2023-06-17_13h21.11.047,face_recognition_ERP_protocol,2022.2.5,59.96548387342429,
Celebs/37_Neil_Patrick_Harris_0014.jpg,non_target,0,0,0,0,0,37,37,37,,,,,,,,,,,,,162.47796059999382,162.47796059999382,162.98048810000182,,,,,,,,,1,009,21,SentadoSom,2023-06-17_13h21.11.047,face_recognition_ERP_protocol,2022.2.5,59.96548387342429,
Celebs/34_Neil_Patrick_Harris_0007.jpg,non_target,0,0,0,0,0,38,38,117,,,,,,,,,,,,,163.49375429999782,163.49375429999782,163.977498799999,,,,,,,,,1,009,21,SentadoSom,2023-06-17_13h21.11.047,face_recognition_ERP_protocol,2022.2.5,59.96548387342429,
Celebs/17_Margot_Robbie_0012.jpg,non_target,0,0,0,0,0,39,39,67,,,,,,,,,,,,,164.47948939999333,164.47948939999333,164.97871180000948,,,,,,,,,1,009,21,SentadoSom,2023-06-17_13h21.11.047,face_recognition_ERP_protocol,2022.2.5,59.96548387342429,
Celebs/20_Margot_Robbie_0004.jpg,non_target,0,0,0,0,0,40,40,116,,,,,,,,,,,,,165.47980609998922,165.47980609998922,165.9797908999899,,,,,,,,,1,009,21,SentadoSom,2023-06-17_13h21.11.047,face_recognition_ERP_protocol,2022.2.5,59.96548387342429,
Celebs/24_Scarlett_Johansson_0001.jpg,non_target,0,0,0,0,0,41,41,10,,,,,,,,,,,,,166.49704529999872,166.49704529999872,166.98092400000314,,,,,,,,,1,009,21,SentadoSom,2023-06-17_13h21.11.047,face_recognition_ERP_protocol,2022.2.5,59.96548387342429,
Celebs/58_Jackie_Chan_0005.jpg,non_target,0,0,0,0,0,42,42,3,,,,,,,,,,,,,167.4833382999932,167.4833382999932,167.9859620000061,,,,,,,,,1,009,21,SentadoSom,2023-06-17_13h21.11.047,face_recognition_ERP_protocol,2022.2.5,59.96548387342429,
Celebs/16_Emma_Stone_0010.jpg,non_target,0,0,0,0,0,43,43,95,,,,,,,,,,,,,168.499153199984,168.499153199984,168.9830932999903,,,,,,,,,1,009,21,SentadoSom,2023-06-17_13h21.11.047,face_recognition_ERP_protocol,2022.2.5,59.96548387342429,
Celebs/44_Will_Smith_0015.jpg,non_target,0,0,0,0,0,44,44,101,,,,,,,,,,,,,169.50036020000698,169.50036020000698,169.9842044999823,,,,,,,,,1,009,21,SentadoSom,2023-06-17_13h21.11.047,face_recognition_ERP_protocol,2022.2.5,59.96548387342429,
Celebs/21_Emma_Stone_0003.jpg,non_target,0,0,0,0,0,45,45,25,,,,,,,,,,,,,170.5013978999923,170.5013978999923,170.98525949998293,,,,,,,,,1,009,21,SentadoSom,2023-06-17_13h21.11.047,face_recognition_ERP_protocol,2022.2.5,59.96548387342429,
Celebs/15_Margot_Robbie_0012.jpg,non_target,0,0,0,0,0,46,46,82,,,,,,,,,,,,,171.50256259998423,171.50256259998423,171.9864460999961,,,,,,,,,1,009,21,SentadoSom,2023-06-17_13h21.11.047,face_recognition_ERP_protocol,2022.2.5,59.96548387342429,
Celebs/22_Scarlett_Johansson_0005.jpg,non_target,0,0,0,0,0,47,47,44,,,,,,,,,,,,,172.48694070000784,172.48694070000784,172.9708156999841,,,,,,,,,1,009,21,SentadoSom,2023-06-17_13h21.11.047,face_recognition_ERP_protocol,2022.2.5,59.96548387342429,
Celebs/50_Jackie_Chan_0014.jpg,non_target,0,0,0,0,0,48,48,38,,,,,,,,,,,,,173.50464870000724,173.50464870000724,173.97185380000155,,,,,,,,,1,009,21,SentadoSom,2023-06-17_13h21.11.047,face_recognition_ERP_protocol,2022.2.5,59.96548387342429,
Celebs/40_Will_Smith_0012.jpg,non_target,0,0,0,0,0,49,49,110,,,,,,,,,,,,,174.47214259998873,174.47214259998873,174.9729578999977,,,,,,,,,1,009,21,SentadoSom,2023-06-17_13h21.11.047,face_recognition_ERP_protocol,2022.2.5,59.96548387342429,
Celebs/23_Daniel_Radcliffe_0019.jpg,target,0,0,0,0,0,50,50,6,,,,,,,,,,,,,175.47454219998326,175.47454219998326,175.97405530000106,,,,,,,,,1,009,21,SentadoSom,2023-06-17_13h21.11.047,face_recognition_ERP_protocol,2022.2.5,59.96548387342429,
Celebs/18_Emma_Watson_0004.jpg,non_target,0,0,0,0,0,51,51,75,,,,,,,,,,,,,176.47641289999592,176.47641289999592,176.97910999998567,,,,,,,,,1,009,21,SentadoSom,2023-06-17_13h21.11.047,face_recognition_ERP_protocol,2022.2.5,59.96548387342429,
Celebs/16_Emma_Stone_0012.jpg,non_target,0,0,0,0,0,52,52,70,,,,,,,,,,,,,177.4804363999865,177.4804363999865,177.9802376999869,,,,,,,,,1,009,21,SentadoSom,2023-06-17_13h21.11.047,face_recognition_ERP_protocol,2022.2.5,59.96548387342429,
Celebs/36_Neil_Patrick_Harris_0007.jpg,non_target,0,0,0,0,0,53,53,5,,,,,,,,,,,,,178.481503899995,178.481503899995,178.98129759999574,,,,,,,,,1,009,21,SentadoSom,2023-06-17_13h21.11.047,face_recognition_ERP_protocol,2022.2.5,59.96548387342429,
Celebs/48_Johnny_Depp_0005.jpg,non_target,0,0,0,0,0,54,54,54,,,,,,,,,,,,,179.49460229999386,179.49460229999386,179.97831420000875,,,,,,,,,1,009,21,SentadoSom,2023-06-17_13h21.11.047,face_recognition_ERP_protocol,2022.2.5,59.96548387342429,
Celebs/50_Johnny_Depp_0018.jpg,non_target,0,0,0,0,0,55,55,24,,,,,,,,,,,,,180.4956414999906,180.4956414999906,180.97952190000797,,,,,,,,,1,009,21,SentadoSom,2023-06-17_13h21.11.047,face_recognition_ERP_protocol,2022.2.5,59.96548387342429,
Celebs/22_Margot_Robbie_0010.jpg,non_target,0,0,0,0,0,56,56,18,,,,,,,,,,,,,181.48082279998926,181.48082279998926,181.9805742999888,,,,,,,,,1,009,21,SentadoSom,2023-06-17_13h21.11.047,face_recognition_ERP_protocol,2022.2.5,59.96548387342429,
Celebs/47_Johnny_Depp_0003.jpg,non_target,0,0,0,0,0,57,57,9,,,,,,,,,,,,,182.48371040000347,182.48371040000347,182.98573039998882,,,,,,,,,1,009,21,SentadoSom,2023-06-17_13h21.11.047,face_recognition_ERP_protocol,2022.2.5,59.96548387342429,
Celebs/23_Emma_Stone_0014.jpg,non_target,0,0,0,0,0,58,58,12,,,,,,,,,,,,,183.49886950000655,183.49886950000655,183.9828234000015,,,,,,,,,1,009,21,SentadoSom,2023-06-17_13h21.11.047,face_recognition_ERP_protocol,2022.2.5,59.96548387342429,
Celebs/17_Margot_Robbie_0014.jpg,non_target,0,0,0,0,0,59,59,114,,,,,,,,,,,,,184.5001190000039,184.5001190000039,184.98384889998124,,,,,,,,,1,009,21,SentadoSom,2023-06-17_13h21.11.047,face_recognition_ERP_protocol,2022.2.5,59.96548387342429,
Celebs/50_Johnny_Depp_0008.jpg,non_target,0,0,0,0,0,60,60,84,,,,,,,,,,,,,185.48517129998072,185.48517129998072,185.98492280000937,,,,,,,,,1,009,21,SentadoSom,2023-06-17_13h21.11.047,face_recognition_ERP_protocol,2022.2.5,59.96548387342429,
Celebs/44_Will_Smith_0007.jpg,non_target,0,0,0,0,0,61,61,65,,,,,,,,,,,,,186.48542149999412,186.48542149999412,186.98611289999099,,,,,,,,,1,009,21,SentadoSom,2023-06-17_13h21.11.047,face_recognition_ERP_protocol,2022.2.5,59.96548387342429,
Celebs/19_Margot_Robbie_0004.jpg,non_target,0,0,0,0,0,62,62,42,,,,,,,,,,,,,187.46981690000393,187.46981690000393,187.9704655999958,,,,,,,,,1,009,21,SentadoSom,2023-06-17_13h21.11.047,face_recognition_ERP_protocol,2022.2.5,59.96548387342429,
Celebs/20_Emma_Stone_0005.jpg,non_target,0,0,0,0,0,63,63,63,,,,,,,,,,,,,188.48761240000022,188.48761240000022,188.97157379999408,,,,,,,,,1,009,21,SentadoSom,2023-06-17_13h21.11.047,face_recognition_ERP_protocol,2022.2.5,59.96548387342429,
Celebs/22_Emma_Stone_0013.jpg,non_target,0,0,0,0,0,64,64,1,,,,,,,,,,,,,189.4755342999997,189.4755342999997,189.97667979999096,,,,,,,,,1,009,21,SentadoSom,2023-06-17_13h21.11.047,face_recognition_ERP_protocol,2022.2.5,59.96548387342429,
Celebs/20_Emma_Watson_0007.jpg,non_target,0,0,0,0,0,65,65,96,,,,,,,,,,,,,190.48991030000616,190.48991030000616,190.9737574000028,,,,,,,,,1,009,21,SentadoSom,2023-06-17_13h21.11.047,face_recognition_ERP_protocol,2022.2.5,59.96548387342429,
Celebs/18_Daniel_Radcliffe_0008.jpg,target,0,0,0,0,0,66,66,28,,,,,,,,,,,,,191.47518229999696,191.47518229999696,191.97486919999938,,,,,,,,,1,009,21,SentadoSom,2023-06-17_13h21.11.047,face_recognition_ERP_protocol,2022.2.5,59.96548387342429,
Celebs/24_Daniel_Radcliffe_0017.jpg,target,0,0,0,0,0,67,67,71,,,,,,,,,,,,,192.47534360000282,192.47534360000282,192.97581780000473,,,,,,,,,1,009,21,SentadoSom,2023-06-17_13h21.11.047,face_recognition_ERP_protocol,2022.2.5,59.96548387342429,
Celebs/26_Scarlett_Johansson_0003.jpg,non_target,0,0,0,0,0,68,68,105,,,,,,,,,,,,,193.47731419999036,193.47731419999036,193.97706979999202,,,,,,,,,1,009,21,SentadoSom,2023-06-17_13h21.11.047,face_recognition_ERP_protocol,2022.2.5,59.96548387342429,
Celebs/22_Emma_Watson_0010.jpg,non_target,0,0,0,0,0,69,69,11,,,,,,,,,,,,,194.47874809999485,194.47874809999485,194.97816149998107,,,,,,,,,1,009,21,SentadoSom,2023-06-17_13h21.11.047,face_recognition_ERP_protocol,2022.2.5,59.96548387342429,
Celebs/18_Daniel_Radcliffe_0002.jpg,target,0,0,0,0,0,70,70,119,,,,,,,,,,,,,195.47875089998706,195.47875089998706,195.97911079999176,,,,,,,,,1,009,21,SentadoSom,2023-06-17_13h21.11.047,face_recognition_ERP_protocol,2022.2.5,59.96548387342429,
Celebs/55_Jackie_Chan_0015.jpg,non_target,0,0,0,0,0,71,71,30,,,,,,,,,,,,,196.4808756999846,196.4808756999846,196.98027669999283,,,,,,,,,1,009,21,SentadoSom,2023-06-17_13h21.11.047,face_recognition_ERP_protocol,2022.2.5,59.96548387342429,
Celebs/25_Scarlett_Johansson_0010.jpg,non_target,0,0,0,0,0,72,72,32,,,,,,,,,,,,,197.481237400003,197.481237400003,197.9814539999934,,,,,,,,,1,009,21,SentadoSom,2023-06-17_13h21.11.047,face_recognition_ERP_protocol,2022.2.5,59.96548387342429,
Celebs/51_Jackie_Chan_0006.jpg,non_target,0,0,0,0,0,73,73,97,,,,,,,,,,,,,198.48326179999276,198.48326179999276,198.9825523000036,,,,,,,,,1,009,21,SentadoSom,2023-06-17_13h21.11.047,face_recognition_ERP_protocol,2022.2.5,59.96548387342429,
Celebs/16_Emma_Stone_0008.jpg,non_target,0,0,0,0,0,74,74,48,,,,,,,,,,,,,199.4839786000084,199.4839786000084,199.98366289999103,,,,,,,,,1,009,21,SentadoSom,2023-06-17_13h21.11.047,face_recognition_ERP_protocol,2022.2.5,59.96548387342429,
Celebs/21_Emma_Watson_0004.jpg,non_target,0,0,0,0,0,75,75,21,,,,,,,,,,,,,200.51742580000428,200.51742580000428,200.9847574000014,,,,,,,,,1,009,21,SentadoSom,2023-06-17_13h21.11.047,face_recognition_ERP_protocol,2022.2.5,59.96548387342429,
Celebs/50_Johnny_Depp_0004.jpg,non_target,0,0,0,0,0,76,76,39,,,,,,,,,,,,,201.48511799998232,201.48511799998232,201.9859099999885,,,,,,,,,1,009,21,SentadoSom,2023-06-17_13h21.11.047,face_recognition_ERP_protocol,2022.2.5,59.96548387342429,
Celebs/34_Neil_Patrick_Harris_0004.jpg,non_target,0,0,0,0,0,77,77,104,,,,,,,,,,,,,202.4874947000062,202.4874947000062,202.97022909999941,,,,,,,,,1,009,21,SentadoSom,2023-06-17_13h21.11.047,face_recognition_ERP_protocol,2022.2.5,59.96548387342429,
Celebs/29_Scarlett_Johansson_0010.jpg,non_target,0,0,0,0,0,78,78,85,,,,,,,,,,,,,203.47216720000142,203.47216720000142,203.97129339998355,,,,,,,,,1,009,21,SentadoSom,2023-06-17_13h21.11.047,face_recognition_ERP_protocol,2022.2.5,59.96548387342429,
Celebs/18_Emma_Stone_0016.jpg,non_target,0,0,0,0,0,79,79,52,,,,,,,,,,,,,204.47193460000562,204.47193460000562,204.97239549999358,,,,,,,,,1,009,21,SentadoSom,2023-06-17_13h21.11.047,face_recognition_ERP_protocol,2022.2.5,59.96548387342429,
Celebs/23_Daniel_Radcliffe_0002.jpg,target,0,0,0,0,0,80,80,77,,,,,,,,,,,,,205.4744310999813,205.4744310999813,205.97352569998475,,,,,,,,,1,009,21,SentadoSom,2023-06-17_13h21.11.047,face_recognition_ERP_protocol,2022.2.5,59.96548387342429,
Celebs/44_Will_Smith_0006.jpg,non_target,0,0,0,0,0,81,81,41,,,,,,,,,,,,,206.4774752999947,206.4774752999947,206.97860189998755,,,,,,,,,1,009,21,SentadoSom,2023-06-17_13h21.11.047,face_recognition_ERP_protocol,2022.2.5,59.96548387342429,
Celebs/39_Jim_Parsons_0001.jpg,non_target,0,0,0,0,0,82,82,49,,,,,,,,,,,,,207.4918597000069,207.4918597000069,207.97568760000286,,,,,,,,,1,009,21,SentadoSom,2023-06-17_13h21.11.047,face_recognition_ERP_protocol,2022.2.5,59.96548387342429,
Celebs/23_Daniel_Radcliffe_0010.jpg,target,0,0,0,0,0,83,83,15,,,,,,,,,,,,,208.47614479999174,208.47614479999174,208.97682549999445,,,,,,,,,1,009,21,SentadoSom,2023-06-17_13h21.11.047,face_recognition_ERP_protocol,2022.2.5,59.96548387342429,
Celebs/49_Johnny_Depp_0013.jpg,non_target,0,0,0,0,0,84,84,33,,,,,,,,,,,,,209.477968399995,209.477968399995,209.97786009998526,,,,,,,,,1,009,21,SentadoSom,2023-06-17_13h21.11.047,face_recognition_ERP_protocol,2022.2.5,59.96548387342429,
Celebs/40_Jim_Parsons_0004.jpg,non_target,0,0,0,0,0,85,85,73,,,,,,,,,,,,,210.47827880000114,210.47827880000114,210.97907000000123,,,,,,,,,1,009,21,SentadoSom,2023-06-17_13h21.11.047,face_recognition_ERP_protocol,2022.2.5,59.96548387342429,
Celebs/32_Jim_Parsons_0016.jpg,non_target,0,0,0,0,0,86,86,102,,,,,,,,,,,,,211.48047330000554,211.48047330000554,211.98012140000355,,,,,,,,,1,009,21,SentadoSom,2023-06-17_13h21.11.047,face_recognition_ERP_protocol,2022.2.5,59.96548387342429,
Celebs/55_Jackie_Chan_0003.jpg,non_target,0,0,0,0,0,87,87,29,,,,,,,,,,,,,212.4814391999971,212.4814391999971,212.9811580000096,,,,,,,,,1,009,21,SentadoSom,2023-06-17_13h21.11.047,face_recognition_ERP_protocol,2022.2.5,59.96548387342429,
Celebs/21_Emma_Stone_0002.jpg,non_target,0,0,0,0,0,88,88,103,,,,,,,,,,,,,213.49842779999017,213.49842779999017,213.98212840000633,,,,,,,,,1,009,21,SentadoSom,2023-06-17_13h21.11.047,face_recognition_ERP_protocol,2022.2.5,59.96548387342429,
Celebs/21_Daniel_Radcliffe_0012.jpg,target,0,0,0,0,0,89,89,8,,,,,,,,,,,,,214.48478420000174,214.48478420000174,214.9707180999976,,,,,,,,,1,009,21,SentadoSom,2023-06-17_13h21.11.047,face_recognition_ERP_protocol,2022.2.5,59.96548387342429,
Celebs/20_Scarlett_Johansson_0011.jpg,non_target,0,0,0,0,0,90,90,109,,,,,,,,,,,,,215.48385749998852,215.48385749998852,215.9844696999935,,,,,,,,,1,009,21,SentadoSom,2023-06-17_13h21.11.047,face_recognition_ERP_protocol,2022.2.5,59.96548387342429,
Celebs/24_Emma_Stone_0015.jpg,non_target,0,0,0,0,0,91,91,57,,,,,,,,,,,,,216.48570389999077,216.48570389999077,216.98557759998948,,,,,,,,,1,009,21,SentadoSom,2023-06-17_13h21.11.047,face_recognition_ERP_protocol,2022.2.5,59.96548387342429,
Celebs/17_Daniel_Radcliffe_0007.jpg,target,0,0,0,0,0,92,92,19,,,,,,,,,,,,,217.48756710000453,217.48756710000453,217.98647849998088,,,,,,,,,1,009,21,SentadoSom,2023-06-17_13h21.11.047,face_recognition_ERP_protocol,2022.2.5,59.96548387342429,
Celebs/39_Jim_Parsons_0010.jpg,non_target,0,0,0,0,0,93,93,0,,,,,,,,,,,,,218.47096849998343,218.47096849998343,218.97108620000654,,,,,,,,,1,009,21,SentadoSom,2023-06-17_13h21.11.047,face_recognition_ERP_protocol,2022.2.5,59.96548387342429,
Celebs/27_Scarlett_Johansson_0012.jpg,non_target,0,0,0,0,0,94,94,78,,,,,,,,,,,,,219.4714779999922,219.4714779999922,219.97221909998916,,,,,,,,,1,009,21,SentadoSom,2023-06-17_13h21.11.047,face_recognition_ERP_protocol,2022.2.5,59.96548387342429,
Celebs/33_Jim_Parsons_0011.jpg,non_target,0,0,0,0,0,95,95,34,,,,,,,,,,,,,220.47413679998135,220.47413679998135,220.97320720000425,,,,,,,,,1,009,21,SentadoSom,2023-06-17_13h21.11.047,face_recognition_ERP_protocol,2022.2.5,59.96548387342429,
Celebs/52_Jackie_Chan_0002.jpg,non_target,0,0,0,0,0,96,96,68,,,,,,,,,,,,,221.49048239999684,221.49048239999684,221.97435489998315,,,,,,,,,1,009,21,SentadoSom,2023-06-17_13h21.11.047,face_recognition_ERP_protocol,2022.2.5,59.96548387342429,
Celebs/45_Will_Smith_0014.jpg,non_target,0,0,0,0,0,97,97,59,,,,,,,,,,,,,222.47594899998512,222.47594899998512,222.9753795999859,,,,,,,,,1,009,21,SentadoSom,2023-06-17_13h21.11.047,face_recognition_ERP_protocol,2022.2.5,59.96548387342429,
Celebs/36_Neil_Patrick_Harris_0010.jpg,non_target,0,0,0,0,0,98,98,79,,,,,,,,,,,,,223.47880119999172,223.47880119999172,223.9804777999816,,,,,,,,,1,009,21,SentadoSom,2023-06-17_13h21.11.047,face_recognition_ERP_protocol,2022.2.5,59.96548387342429,
Celebs/17_Emma_Watson_0006.jpg,non_target,0,0,0,0,0,99,99,90,,,,,,,,,,,,,224.49382380000316,224.49382380000316,224.9776990999817,,,,,,,,,1,009,21,SentadoSom,2023-06-17_13h21.11.047,face_recognition_ERP_protocol,2022.2.5,59.96548387342429,
Celebs/43_Will_Smith_0007.jpg,non_target,0,0,0,0,0,100,100,74,,,,,,,,,,,,,225.494838899991,225.494838899991,225.97872220000136,,,,,,,,,1,009,21,SentadoSom,2023-06-17_13h21.11.047,face_recognition_ERP_protocol,2022.2.5,59.96548387342429,
Celebs/35_Neil_Patrick_Harris_0009.jpg,non_target,0,0,0,0,0,101,101,87,,,,,,,,,,,,,226.49594540000544,226.49594540000544,226.97977030000766,,,,,,,,,1,009,21,SentadoSom,2023-06-17_13h21.11.047,face_recognition_ERP_protocol,2022.2.5,59.96548387342429,
Celebs/50_Johnny_Depp_0010.jpg,non_target,0,0,0,0,0,102,102,115,,,,,,,,,,,,,227.48024299999815,227.48024299999815,227.98093749998952,,,,,,,,,1,009,21,SentadoSom,2023-06-17_13h21.11.047,face_recognition_ERP_protocol,2022.2.5,59.96548387342429,
Celebs/40_Jim_Parsons_0015.jpg,non_target,0,0,0,0,0,103,103,45,,,,,,,,,,,,,228.48381479998352,228.48381479998352,228.98599499999546,,,,,,,,,1,009,21,SentadoSom,2023-06-17_13h21.11.047,face_recognition_ERP_protocol,2022.2.5,59.96548387342429,
Celebs/47_Johnny_Depp_0004.jpg,non_target,0,0,0,0,0,104,104,76,,,,,,,,,,,,,229.4992651999928,229.4992651999928,229.9831184000068,,,,,,,,,1,009,21,SentadoSom,2023-06-17_13h21.11.047,face_recognition_ERP_protocol,2022.2.5,59.96548387342429,
Celebs/55_Jackie_Chan_0008.jpg,non_target,0,0,0,0,0,105,105,92,,,,,,,,,,,,,230.48498149999068,230.48498149999068,230.98420149998856,,,,,,,,,1,009,21,SentadoSom,2023-06-17_13h21.11.047,face_recognition_ERP_protocol,2022.2.5,59.96548387342429,
Celebs/14_Emma_Watson_0015.jpg,non_target,0,0,0,0,0,106,106,56,,,,,,,,,,,,,231.5014261000033,231.5014261000033,231.98528449999867,,,,,,,,,1,009,21,SentadoSom,2023-06-17_13h21.11.047,face_recognition_ERP_protocol,2022.2.5,59.96548387342429,
Celebs/32_Jim_Parsons_0018.jpg,non_target,0,0,0,0,0,107,107,46,,,,,,,,,,,,,232.50246210000478,232.50246210000478,232.9863989999867,,,,,,,,,1,009,21,SentadoSom,2023-06-17_13h21.11.047,face_recognition_ERP_protocol,2022.2.5,59.96548387342429,
Celebs/15_Margot_Robbie_0005.jpg,non_target,0,0,0,0,0,108,108,80,,,,,,,,,,,,,233.47199900000123,233.47199900000123,233.97472609998658,,,,,,,,,1,009,21,SentadoSom,2023-06-17_13h21.11.047,face_recognition_ERP_protocol,2022.2.5,59.96548387342429,
Celebs/22_Emma_Watson_0001.jpg,non_target,0,0,0,0,0,109,109,58,,,,,,,,,,,,,234.48804769999697,234.48804769999697,234.9718920000014,,,,,,,,,1,009,21,SentadoSom,2023-06-17_13h21.11.047,face_recognition_ERP_protocol,2022.2.5,59.96548387342429,
Celebs/33_Neil_Patrick_Harris_0011.jpg,non_target,0,0,0,0,0,110,110,112,,,,,,,,,,,,,235.4892564000038,235.4892564000038,235.97299710000516,,,,,,,,,1,009,21,SentadoSom,2023-06-17_13h21.11.047,face_recognition_ERP_protocol,2022.2.5,59.96548387342429,
Celebs/42_Will_Smith_0012.jpg,non_target,0,0,0,0,0,111,111,64,,,,,,,,,,,,,236.47449039999628,236.47449039999628,236.9740104000084,,,,,,,,,1,009,21,SentadoSom,2023-06-17_13h21.11.047,face_recognition_ERP_protocol,2022.2.5,59.96548387342429,
Celebs/37_Will_Smith_0015.jpg,non_target,0,0,0,0,0,112,112,113,,,,,,,,,,,,,237.47525829999358,237.47525829999358,237.97526829998242,,,,,,,,,1,009,21,SentadoSom,2023-06-17_13h21.11.047,face_recognition_ERP_protocol,2022.2.5,59.96548387342429,
Celebs/24_Scarlett_Johansson_0011.jpg,non_target,0,0,0,0,0,113,113,100,,,,,,,,,,,,,238.4764215000032,238.4764215000032,238.97630409998237,,,,,,,,,1,009,21,SentadoSom,2023-06-17_13h21.11.047,face_recognition_ERP_protocol,2022.2.5,59.96548387342429,
Celebs/48_Johnny_Depp_0003.jpg,non_target,0,0,0,0,0,114,114,55,,,,,,,,,,,,,239.47768809998524,239.47768809998524,239.97738329999265,,,,,,,,,1,009,21,SentadoSom,2023-06-17_13h21.11.047,face_recognition_ERP_protocol,2022.2.5,59.96548387342429,
Celebs/37_Neil_Patrick_Harris_0010.jpg,non_target,0,0,0,0,0,115,115,93,,,,,,,,,,,,,240.47849189999397,240.47849189999397,240.97844049998093,,,,,,,,,1,009,21,SentadoSom,2023-06-17_13h21.11.047,face_recognition_ERP_protocol,2022.2.5,59.96548387342429,
Celebs/39_Neil_Patrick_Harris_0010.jpg,non_target,0,0,0,0,0,116,116,94,,,,,,,,,,,,,241.48093659998267,241.48093659998267,241.98352499998873,,,,,,,,,1,009,21,SentadoSom,2023-06-17_13h21.11.047,face_recognition_ERP_protocol,2022.2.5,59.96548387342429,
Celebs/39_Jim_Parsons_0008.jpg,non_target,0,0,0,0,0,117,117,89,,,,,,,,,,,,,242.49680249998346,242.49680249998346,242.98055959999328,,,,,,,,,1,009,21,SentadoSom,2023-06-17_13h21.11.047,face_recognition_ERP_protocol,2022.2.5,59.96548387342429,
Celebs/17_Margot_Robbie_0006.jpg,non_target,0,0,0,0,0,118,118,17,,,,,,,,,,,,,243.4821651999955,243.4821651999955,243.98168050000095,,,,,,,,,1,009,21,SentadoSom,2023-06-17_13h21.11.047,face_recognition_ERP_protocol,2022.2.5,59.96548387342429,
Celebs/16_Margot_Robbie_0009.jpg,non_target,0,0,0,0,0,119,119,107,,,,,,,,,,,,,244.48341270000674,244.48341270000674,244.9828254999884,,,,,,,,,1,009,21,SentadoSom,2023-06-17_13h21.11.047,face_recognition_ERP_protocol,2022.2.5,59.96548387342429,
Celebs/47_Johnny_Depp_0003.jpg,non_target,1,0,1,0,0,0,0,9,,,,,,,,,,,,,248.7201306000061,248.7201306000061,249.17081119999057,245.5009885999898,245.5009885999898,space,3.1308755000063684,,,,,1,009,21,SentadoSom,2023-06-17_13h21.11.047,face_recognition_ERP_protocol,2022.2.5,59.96548387342429,
Celebs/21_Margot_Robbie_0003.jpg,non_target,1,0,1,0,0,1,1,27,,,,,,,,,,,,,249.67125210000086,249.67125210000086,250.1717956000066,,,,,,,,,1,009,21,SentadoSom,2023-06-17_13h21.11.047,face_recognition_ERP_protocol,2022.2.5,59.96548387342429,
Celebs/18_Emma_Watson_0004.jpg,non_target,1,0,1,0,0,2,2,75,,,,,,,,,,,,,250.67251879998366,250.67251879998366,251.17288199998438,,,,,,,,,1,009,21,SentadoSom,2023-06-17_13h21.11.047,face_recognition_ERP_protocol,2022.2.5,59.96548387342429,
Celebs/36_Neil_Patrick_Harris_0010.jpg,non_target,1,0,1,0,0,3,3,79,,,,,,,,,,,,,251.67375859999447,251.67375859999447,252.17393719998654,,,,,,,,,1,009,21,SentadoSom,2023-06-17_13h21.11.047,face_recognition_ERP_protocol,2022.2.5,59.96548387342429,
Celebs/26_Scarlett_Johansson_0003.jpg,non_target,1,0,1,0,0,4,4,105,,,,,,,,,,,,,252.6749026000034,252.6749026000034,253.15836659999331,,,,,,,,,1,009,21,SentadoSom,2023-06-17_13h21.11.047,face_recognition_ERP_protocol,2022.2.5,59.96548387342429,
Celebs/21_Scarlett_Johansson_0007.jpg,non_target,1,0,1,0,0,5,5,118,,,,,,,,,,,,,253.65896860000794,253.65896860000794,254.15956619998906,,,,,,,,,1,009,21,SentadoSom,2023-06-17_13h21.11.047,face_recognition_ERP_protocol,2022.2.5,59.96548387342429,
Celebs/32_Jim_Parsons_0010.jpg,non_target,1,0,1,0,0,6,6,98,,,,,,,,,,,,,254.66199309998774,254.66199309998774,255.1645542999904,,,,,,,,,1,009,21,SentadoSom,2023-06-17_13h21.11.047,face_recognition_ERP_protocol,2022.2.5,59.96548387342429,
Celebs/17_Emma_Watson_0006.jpg,non_target,1,0,1,0,0,7,7,90,,,,,,,,,,,,,255.66590609998093,255.66590609998093,256.16571770000155,,,,,,,,,1,009,21,SentadoSom,2023-06-17_13h21.11.047,face_recognition_ERP_protocol,2022.2.5,59.96548387342429,
Celebs/16_Margot_Robbie_0009.jpg,non_target,1,0,1,0,0,8,8,107,,,,,,,,,,,,,256.6669910000055,256.6669910000055,257.16704880000907,,,,,,,,,1,009,21,SentadoSom,2023-06-17_13h21.11.047,face_recognition_ERP_protocol,2022.2.5,59.96548387342429,
Celebs/21_Emma_Stone_0003.jpg,non_target,1,0,1,0,0,9,9,25,,,,,,,,,,,,,257.6800923999981,257.6800923999981,258.16385670000454,,,,,,,,,1,009,21,SentadoSom,2023-06-17_13h21.11.047,face_recognition_ERP_protocol,2022.2.5,59.96548387342429,
Celebs/35_Neil_Patrick_Harris_0009.jpg,non_target,1,0,1,0,0,10,10,87,,,,,,,,,,,,,258.6651323999977,258.6651323999977,259.1649125999829,,,,,,,,,1,009,21,SentadoSom,2023-06-17_13h21.11.047,face_recognition_ERP_protocol,2022.2.5,59.96548387342429,
Celebs/19_Margot_Robbie_0001.jpg,non_target,1,0,1,0,0,11,11,51,,,,,,,,,,,,,259.66593499999726,259.66593499999726,260.1660673999868,,,,,,,,,1,009,21,SentadoSom,2023-06-17_13h21.11.047,face_recognition_ERP_protocol,2022.2.5,59.96548387342429,
Celebs/43_Will_Smith_0010.jpg,non_target,1,0,1,0,0,12,12,22,,,,,,,,,,,,,260.6666362999822,260.6666362999822,261.1671907999844,,,,,,,,,1,009,21,SentadoSom,2023-06-17_13h21.11.047,face_recognition_ERP_protocol,2022.2.5,59.96548387342429,
Celebs/21_Emma_Watson_0004.jpg,non_target,1,0,1,0,0,13,13,21,,,,,,,,,,,,,261.66776399998344,261.66776399998344,262.16830449999543,,,,,,,,,1,009,21,SentadoSom,2023-06-17_13h21.11.047,face_recognition_ERP_protocol,2022.2.5,59.96548387342429,
Celebs/44_Will_Smith_0015.jpg,non_target,1,0,1,0,0,14,14,101,,,,,,,,,,,,,262.66914610000094,262.66914610000094,263.16934269998455,,,,,,,,,1,009,21,SentadoSom,2023-06-17_13h21.11.047,face_recognition_ERP_protocol,2022.2.5,59.96548387342429,
Celebs/29_Scarlett_Johansson_0010.jpg,non_target,1,0,1,0,0,15,15,85,,,,,,,,,,,,,263.669764899998,263.669764899998,264.1705515999929,,,,,,,,,1,009,21,SentadoSom,2023-06-17_13h21.11.047,face_recognition_ERP_protocol,2022.2.5,59.96548387342429,
Celebs/50_Jackie_Chan_0012.jpg,non_target,1,0,1,0,0,16,16,43,,,,,,,,,,,,,264.67109019999043,264.67109019999043,265.17156389998854,,,,,,,,,1,009,21,SentadoSom,2023-06-17_13h21.11.047,face_recognition_ERP_protocol,2022.2.5,59.96548387342429,
Celebs/39_Jim_Parsons_0010.jpg,non_target,1,0,1,0,0,17,17,0,,,,,,,,,,,,,265.67237240000395,265.67237240000395,266.1726369999815,,,,,,,,,1,009,21,SentadoSom,2023-06-17_13h21.11.047,face_recognition_ERP_protocol,2022.2.5,59.96548387342429,
Celebs/29_Scarlett_Johansson_0016.jpg,non_target,1,0,1,0,0,18,18,2,,,,,,,,,,,,,266.6733108999906,266.6733108999906,267.1737476999988,,,,,,,,,1,009,21,SentadoSom,2023-06-17_13h21.11.047,face_recognition_ERP_protocol,2022.2.5,59.96548387342429,
Celebs/27_Scarlett_Johansson_0012.jpg,non_target,1,0,1,0,0,19,19,78,,,,,,,,,,,,,267.6748251999961,267.6748251999961,268.15814889999456,,,,,,,,,1,009,21,SentadoSom,2023-06-17_13h21.11.047,face_recognition_ERP_protocol,2022.2.5,59.96548387342429,
Celebs/21_Daniel_Radcliffe_0008.jpg,target,1,0,1,0,0,20,20,16,,,,,,,,,,,,,268.6604694999987,268.6604694999987,269.1632125999895,,,,,,,,,1,009,21,SentadoSom,2023-06-17_13h21.11.047,face_recognition_ERP_protocol,2022.2.5,59.96548387342429,
Celebs/15_Margot_Robbie_0012.jpg,non_target,1,0,1,0,0,21,21,82,,,,,,,,,,,,,269.66450429998804,269.66450429998804,270.16436399999657,,,,,,,,,1,009,21,SentadoSom,2023-06-17_13h21.11.047,face_recognition_ERP_protocol,2022.2.5,59.96548387342429,
Celebs/22_Emma_Watson_0001.jpg,non_target,1,0,1,0,0,22,22,58,,,,,,,,,,,,,270.6775697999983,270.6775697999983,271.16131060000043,,,,,,,,,1,009,21,SentadoSom,2023-06-17_13h21.11.047,face_recognition_ERP_protocol,2022.2.5,59.96548387342429,
Celebs/19_Emma_Stone_0006.jpg,non_target,1,0,1,0,0,23,23,66,,,,,,,,,,,,,271.6638859999948,271.6638859999948,272.1664960999915,,,,,,,,,1,009,21,SentadoSom,2023-06-17_13h21.11.047,face_recognition_ERP_protocol,2022.2.5,59.96548387342429,
Celebs/22_Emma_Watson_0003.jpg,non_target,1,0,1,0,0,24,24,91,,,,,,,,,,,,,272.6678176999849,272.6678176999849,273.16764339999645,,,,,,,,,1,009,21,SentadoSom,2023-06-17_13h21.11.047,face_recognition_ERP_protocol,2022.2.5,59.96548387342429,
Celebs/34_Neil_Patrick_Harris_0007.jpg,non_target,1,0,1,0,0,25,25,117,,,,,,,,,,,,,273.68089379998855,273.68089379998855,274.1647038999945,,,,,,,,,1,009,21,SentadoSom,2023-06-17_13h21.11.047,face_recognition_ERP_protocol,2022.2.5,59.96548387342429,
Celebs/23_Daniel_Radcliffe_0010.jpg,target,1,0,1,0,0,26,26,15,,,,,,,,,,,,,274.66574460000265,274.66574460000265,275.1657666999963,,,,,,,,,1,009,21,SentadoSom,2023-06-17_13h21.11.047,face_recognition_ERP_protocol,2022.2.5,59.96548387342429,
Celebs/16_Emma_Stone_0008.jpg,non_target,1,0,1,0,0,27,27,48,,,,,,,,,,,,,275.6662648000056,275.6662648000056,276.1669103000022,,,,,,,,,1,009,21,SentadoSom,2023-06-17_13h21.11.047,face_recognition_ERP_protocol,2022.2.5,59.96548387342429,
Celebs/39_Neil_Patrick_Harris_0010.jpg,non_target,1,0,1,0,0,28,28,94,,,,,,,,,,,,,276.6674313999829,276.6674313999829,277.1680070000002,,,,,,,,,1,009,21,SentadoSom,2023-06-17_13h21.11.047,face_recognition_ERP_protocol,2022.2.5,59.96548387342429,
Celebs/36_Neil_Patrick_Harris_0007.jpg,non_target,1,0,1,0,0,29,29,5,,,,,,,,,,,,,277.66878279999946,277.66878279999946,278.1690585000033,,,,,,,,,1,009,21,SentadoSom,2023-06-17_13h21.11.047,face_recognition_ERP_protocol,2022.2.5,59.96548387342429,
Celebs/57_Jackie_Chan_0010.jpg,non_target,1,0,1,0,0,30,30,62,,,,,,,,,,,,,278.66958099999465,278.66958099999465,279.17016879998846,,,,,,,,,1,009,21,SentadoSom,2023-06-17_13h21.11.047,face_recognition_ERP_protocol,2022.2.5,59.96548387342429,
Celebs/18_Emma_Stone_0016.jpg,non_target,1,0,1,0,0,31,31,52,,,,,,,,,,,,,279.67061129998183,279.67061129998183,280.1713042999909,,,,,,,,,1,009,21,SentadoSom,2023-06-17_13h21.11.047,face_recognition_ERP_protocol,2022.2.5,59.96548387342429,
Celebs/45_Johnny_Depp_0003.jpg,non_target,1,0,1,0,0,32,32,108,,,,,,,,,,,,,280.67217909998726,280.67217909998726,281.1723678999988,,,,,,,,,1,009,21,SentadoSom,2023-06-17_13h21.11.047,face_recognition_ERP_protocol,2022.2.5,59.96548387342429,
Celebs/47_Johnny_Depp_0004.jpg,non_target,1,0,1,0,0,33,33,76,,,,,,,,,,,,,281.67282259999774,281.67282259999774,282.1733825999836,,,,,,,,,1,009,21,SentadoSom,2023-06-17_13h21.11.047,face_recognition_ERP_protocol,2022.2.5,59.96548387342429,
Celebs/43_Will_Smith_0006.jpg,non_target,1,0,1,0,0,34,34,61,,,,,,,,,,,,,282.6737766999868,282.6737766999868,283.17455550000886,,,,,,,,,1,009,21,SentadoSom,2023-06-17_13h21.11.047,face_recognition_ERP_protocol,2022.2.5,59.96548387342429,
Celebs/57_Jackie_Chan_0008.jpg,non_target,1,0,1,0,0,35,35,72,,,,,,,,,,,,,283.65850699998555,283.65850699998555,284.15900499999407,,,,,,,,,1,009,21,SentadoSom,2023-06-17_13h21.11.047,face_recognition_ERP_protocol,2022.2.5,59.96548387342429,
Celebs/50_Johnny_Depp_0004.jpg,non_target,1,0,1,0,0,36,36,39,,,,,,,,,,,,,284.6618545000092,284.6618545000092,285.16408719998435,,,,,,,,,1,009,21,SentadoSom,2023-06-17_13h21.11.047,face_recognition_ERP_protocol,2022.2.5,59.96548387342429,
Celebs/22_Margot_Robbie_0010.jpg,non_target,1,0,1,0,0,37,37,18,,,,,,,,,,,,,285.6772040000069,285.6772040000069,286.1612552999868,,,,,,,,,1,009,21,SentadoSom,2023-06-17_13h21.11.047,face_recognition_ERP_protocol,2022.2.5,59.96548387342429,
Celebs/23_Daniel_Radcliffe_0019.jpg,target,1,0,1,0,0,38,38,6,,,,,,,,,,,,,286.6614881999849,286.6614881999849,287.1623016000085,,,,,,,,,1,009,21,SentadoSom,2023-06-17_13h21.11.047,face_recognition_ERP_protocol,2022.2.5,59.96548387342429,
Celebs/47_Johnny_Depp_0009.jpg,non_target,1,0,1,0,0,39,39,23,,,,,,,,,,,,,287.66275580000365,287.66275580000365,288.163330499985,,,,,,,,,1,009,21,SentadoSom,2023-06-17_13h21.11.047,face_recognition_ERP_protocol,2022.2.5,59.96548387342429,
Celebs/18_Daniel_Radcliffe_0002.jpg,target,1,0,1,0,0,40,40,119,,,,,,,,,,,,,288.66391460000887,288.66391460000887,289.16450869999244,,,,,,,,,1,009,21,SentadoSom,2023-06-17_13h21.11.047,face_recognition_ERP_protocol,2022.2.5,59.96548387342429,
Celebs/33_Jim_Parsons_0011.jpg,non_target,1,0,1,0,0,41,41,34,,,,,,,,,,,,,289.66492569999536,289.66492569999536,290.1655374999973,,,,,,,,,1,009,21,SentadoSom,2023-06-17_13h21.11.047,face_recognition_ERP_protocol,2022.2.5,59.96548387342429,
Celebs/19_Margot_Robbie_0004.jpg,non_target,1,0,1,0,0,42,42,42,,,,,,,,,,,,,290.66627660000813,290.66627660000813,291.16663309998694,,,,,,,,,1,009,21,SentadoSom,2023-06-17_13h21.11.047,face_recognition_ERP_protocol,2022.2.5,59.96548387342429,
Celebs/24_Daniel_Radcliffe_0017.jpg,target,1,0,1,0,0,43,43,71,,,,,,,,,,,,,291.6676307999878,291.6676307999878,292.1677209000045,,,,,,,,,1,009,21,SentadoSom,2023-06-17_13h21.11.047,face_recognition_ERP_protocol,2022.2.5,59.96548387342429,
Celebs/34_Neil_Patrick_Harris_0004.jpg,non_target,1,0,1,0,0,44,44,104,,,,,,,,,,,,,292.66849849998835,292.66849849998835,293.1689252000069,,,,,,,,,1,009,21,SentadoSom,2023-06-17_13h21.11.047,face_recognition_ERP_protocol,2022.2.5,59.96548387342429,
Celebs/51_Jackie_Chan_0006.jpg,non_target,1,0,1,0,0,45,45,97,,,,,,,,,,,,,293.6691785999865,293.6691785999865,294.1698734999809,,,,,,,,,1,009,21,SentadoSom,2023-06-17_13h21.11.047,face_recognition_ERP_protocol,2022.2.5,59.96548387342429,
Celebs/31_Neil_Patrick_Harris_0008.jpg,non_target,1,0,1,0,0,46,46,99,,,,,,,,,,,,,294.670392,294.670392,295.1709989999945,,,,,,,,,1,009,21,SentadoSom,2023-06-17_13h21.11.047,face_recognition_ERP_protocol,2022.2.5,59.96548387342429,
Celebs/25_Scarlett_Johansson_0010.jpg,non_target,1,0,1,0,0,47,47,32,,,,,,,,,,,,,295.67167459998745,295.67167459998745,296.1721080999996,,,,,,,,,1,009,21,SentadoSom,2023-06-17_13h21.11.047,face_recognition_ERP_protocol,2022.2.5,59.96548387342429,
Celebs/54_Jackie_Chan_0014.jpg,non_target,1,0,1,0,0,48,48,111,,,,,,,,,,,,,296.6724572000094,296.6724572000094,297.17318399998476,,,,,,,,,1,009,21,SentadoSom,2023-06-17_13h21.11.047,face_recognition_ERP_protocol,2022.2.5,59.96548387342429,
Celebs/48_Johnny_Depp_0001.jpg,non_target,1,0,1,0,0,49,49,106,,,,,,,,,,,,,297.67393689998426,297.67393689998426,298.17431309999665,,,,,,,,,1,009,21,SentadoSom,2023-06-17_13h21.11.047,face_recognition_ERP_protocol,2022.2.5,59.96548387342429,
Celebs/17_Margot_Robbie_0014.jpg,non_target,1,0,1,0,0,50,50,114,,,,,,,,,,,,,298.65816500000074,298.65816500000074,299.1586111999932,,,,,,,,,1,009,21,SentadoSom,2023-06-17_13h21.11.047,face_recognition_ERP_protocol,2022.2.5,59.96548387342429,
Celebs/50_Jackie_Chan_0014.jpg,non_target,1,0,1,0,0,51,51,38,,,,,,,,,,,,,299.6596887999913,299.6596887999913,300.1598168000055,,,,,,,,,1,009,21,SentadoSom,2023-06-17_13h21.11.047,face_recognition_ERP_protocol,2022.2.5,59.96548387342429,
Celebs/20_Emma_Stone_0005.jpg,non_target,1,0,1,0,0,52,52,63,,,,,,,,,,,,,300.66021360000013,300.66021360000013,301.16080809998675,,,,,,,,,1,009,21,SentadoSom,2023-06-17_13h21.11.047,face_recognition_ERP_protocol,2022.2.5,59.96548387342429,
Celebs/21_Daniel_Radcliffe_0002.jpg,target,1,0,1,0,0,53,53,60,,,,,,,,,,,,,301.66150459999335,301.66150459999335,302.16199520000373,,,,,,,,,1,009,21,SentadoSom,2023-06-17_13h21.11.047,face_recognition_ERP_protocol,2022.2.5,59.96548387342429,
Celebs/20_Scarlett_Johansson_0011.jpg,non_target,1,0,1,0,0,54,54,109,,,,,,,,,,,,,302.66269599998486,302.66269599998486,303.1630720999965,,,,,,,,,1,009,21,SentadoSom,2023-06-17_13h21.11.047,face_recognition_ERP_protocol,2022.2.5,59.96548387342429,
Celebs/48_Johnny_Depp_0003.jpg,non_target,1,0,1,0,0,55,55,55,,,,,,,,,,,,,303.66380389998085,303.66380389998085,304.16418629998225,,,,,,,,,1,009,21,SentadoSom,2023-06-17_13h21.11.047,face_recognition_ERP_protocol,2022.2.5,59.96548387342429,
Celebs/20_Margot_Robbie_0004.jpg,non_target,1,0,1,0,0,56,56,116,,,,,,,,,,,,,304.6645101000031,304.6645101000031,305.1652204999991,,,,,,,,,1,009,21,SentadoSom,2023-06-17_13h21.11.047,face_recognition_ERP_protocol,2022.2.5,59.96548387342429,
Celebs/21_Daniel_Radcliffe_0012.jpg,target,1,0,1,0,0,57,57,8,,,,,,,,,,,,,305.667592599988,305.667592599988,306.1703407999885,,,,,,,,,1,009,21,SentadoSom,2023-06-17_13h21.11.047,face_recognition_ERP_protocol,2022.2.5,59.96548387342429,
Celebs/52_Jackie_Chan_0002.jpg,non_target,1,0,1,0,0,58,58,68,,,,,,,,,,,,,306.6836517000047,306.6836517000047,307.16745380000793,,,,,,,,,1,009,21,SentadoSom,2023-06-17_13h21.11.047,face_recognition_ERP_protocol,2022.2.5,59.96548387342429,
Celebs/22_Scarlett_Johansson_0005.jpg,non_target,1,0,1,0,0,59,59,44,,,,,,,,,,,,,307.6681741999928,307.6681741999928,308.1684993999952,,,,,,,,,1,009,21,SentadoSom,2023-06-17_13h21.11.047,face_recognition_ERP_protocol,2022.2.5,59.96548387342429,
Celebs/15_Margot_Robbie_0005.jpg,non_target,1,0,1,0,0,60,60,80,,,,,,,,,,,,,308.6696282000048,308.6696282000048,309.16970929998206,,,,,,,,,1,009,21,SentadoSom,2023-06-17_13h21.11.047,face_recognition_ERP_protocol,2022.2.5,59.96548387342429,
Celebs/16_Emma_Stone_0010.jpg,non_target,1,0,1,0,0,61,61,95,,,,,,,,,,,,,309.6701361000014,309.6701361000014,310.17077060000156,,,,,,,,,1,009,21,SentadoSom,2023-06-17_13h21.11.047,face_recognition_ERP_protocol,2022.2.5,59.96548387342429,
Celebs/39_Jim_Parsons_0008.jpg,non_target,1,0,1,0,0,62,62,89,,,,,,,,,,,,,310.67424170000595,310.67424170000595,311.1591558000073,,,,,,,,,1,009,21,SentadoSom,2023-06-17_13h21.11.047,face_recognition_ERP_protocol,2022.2.5,59.96548387342429,
Celebs/16_Emma_Stone_0014.jpg,non_target,1,0,1,0,0,63,63,40,,,,,,,,,,,,,311.6604379999917,311.6604379999917,312.160249699984,,,,,,,,,1,009,21,SentadoSom,2023-06-17_13h21.11.047,face_recognition_ERP_protocol,2022.2.5,59.96548387342429,
Celebs/17_Margot_Robbie_0006.jpg,non_target,1,0,1,0,0,64,64,17,,,,,,,,,,,,,312.67352479998954,312.67352479998954,313.1741234000074,,,,,,,,,1,009,21,SentadoSom,2023-06-17_13h21.11.047,face_recognition_ERP_protocol,2022.2.5,59.96548387342429,
Celebs/39_Jim_Parsons_0001.jpg,non_target,1,0,1,0,0,65,65,49,,,,,,,,,,,,,313.6744408000086,313.6744408000086,314.15843350000796,,,,,,,,,1,009,21,SentadoSom,2023-06-17_13h21.11.047,face_recognition_ERP_protocol,2022.2.5,59.96548387342429,
Celebs/39_Jim_Parsons_0004.jpg,non_target,1,0,1,0,0,66,66,88,,,,,,,,,,,,,314.65891060000286,314.65891060000286,315.1595115000091,,,,,,,,,1,009,21,SentadoSom,2023-06-17_13h21.11.047,face_recognition_ERP_protocol,2022.2.5,59.96548387342429,
Celebs/37_Will_Smith_0015.jpg,non_target,1,0,1,0,0,67,67,113,,,,,,,,,,,,,315.65991059999214,315.65991059999214,316.16060420000576,,,,,,,,,1,009,21,SentadoSom,2023-06-17_13h21.11.047,face_recognition_ERP_protocol,2022.2.5,59.96548387342429,
Celebs/32_Jim_Parsons_0018.jpg,non_target,1,0,1,0,0,68,68,46,,,,,,,,,,,,,316.6610257999855,316.6610257999855,317.16167949998635,,,,,,,,,1,009,21,SentadoSom,2023-06-17_13h21.11.047,face_recognition_ERP_protocol,2022.2.5,59.96548387342429,
Celebs/50_Johnny_Depp_0010.jpg,non_target,1,0,1,0,0,69,69,115,,,,,,,,,,,,,317.66339609998977,317.66339609998977,318.1627452999819,,,,,,,,,1,009,21,SentadoSom,2023-06-17_13h21.11.047,face_recognition_ERP_protocol,2022.2.5,59.96548387342429,
Celebs/42_Will_Smith_0012.jpg,non_target,1,0,1,0,0,70,70,64,,,,,,,,,,,,,318.66322640000726,318.66322640000726,319.16399169998476,,,,,,,,,1,009,21,SentadoSom,2023-06-17_13h21.11.047,face_recognition_ERP_protocol,2022.2.5,59.96548387342429,
Celebs/50_Johnny_Depp_0008.jpg,non_target,1,0,1,0,0,71,71,84,,,,,,,,,,,,,319.6643128999858,319.6643128999858,320.16491980000865,,,,,,,,,1,009,21,SentadoSom,2023-06-17_13h21.11.047,face_recognition_ERP_protocol,2022.2.5,59.96548387342429,
Celebs/43_Will_Smith_0007.jpg,non_target,1,0,1,0,0,72,72,74,,,,,,,,,,,,,320.6658461999905,320.6658461999905,321.1660267999978,,,,,,,,,1,009,21,SentadoSom,2023-06-17_13h21.11.047,face_recognition_ERP_protocol,2022.2.5,59.96548387342429,
Celebs/54_Jackie_Chan_0001.jpg,non_target,1,0,1,0,0,73,73,7,,,,,,,,,,,,,321.66677899999195,321.66677899999195,322.1672510000062,,,,,,,,,1,009,21,SentadoSom,2023-06-17_13h21.11.047,face_recognition_ERP_protocol,2022.2.5,59.96548387342429,
Celebs/14_Emma_Watson_0008.jpg,non_target,1,0,1,0,0,74,74,36,,,,,,,,,,,,,322.6678045000008,322.6678045000008,323.16820719998213,,,,,,,,,1,009,21,SentadoSom,2023-06-17_13h21.11.047,face_recognition_ERP_protocol,2022.2.5,59.96548387342429,
Celebs/55_Jackie_Chan_0003.jpg,non_target,1,0,1,0,0,75,75,29,,,,,,,,,,,,,323.66869200000656,323.66869200000656,324.1693907000008,,,,,,,,,1,009,21,SentadoSom,2023-06-17_13h21.11.047,face_recognition_ERP_protocol,2022.2.5,59.96548387342429,
Celebs/38_Jim_Parsons_0003.jpg,non_target,1,0,1,0,0,76,76,53,,,,,,,,,,,,,324.6709659000044,324.6709659000044,325.1704680999974,,,,,,,,,1,009,21,SentadoSom,2023-06-17_13h21.11.047,face_recognition_ERP_protocol,2022.2.5,59.96548387342429,
Celebs/24_Scarlett_Johansson_0001.jpg,non_target,1,0,1,0,0,77,77,10,,,,,,,,,,,,,325.670712799998,325.670712799998,326.1715367999859,,,,,,,,,1,009,21,SentadoSom,2023-06-17_13h21.11.047,face_recognition_ERP_protocol,2022.2.5,59.96548387342429,
Celebs/45_Will_Smith_0010.jpg,non_target,1,0,1,0,0,78,78,69,,,,,,,,,,,,,326.67190570000093,326.67190570000093,327.1726446999819,,,,,,,,,1,009,21,SentadoSom,2023-06-17_13h21.11.047,face_recognition_ERP_protocol,2022.2.5,59.96548387342429,
Celebs/49_Johnny_Depp_0013.jpg,non_target,1,0,1,0,0,79,79,33,,,,,,,,,,,,,327.6730285999947,327.6730285999947,328.1736863999977,,,,,,,,,1,009,21,SentadoSom,2023-06-17_13h21.11.047,face_recognition_ERP_protocol,2022.2.5,59.96548387342429,
Celebs/37_Neil_Patrick_Harris_0010.jpg,non_target,1,0,1,0,0,80,80,93,,,,,,,,,,,,,328.67409729998326,328.67409729998326,329.15820269999676,,,,,,,,,1,009,21,SentadoSom,2023-06-17_13h21.11.047,face_recognition_ERP_protocol,2022.2.5,59.96548387342429,
Celebs/50_Johnny_Depp_0018.jpg,non_target,1,0,1,0,0,81,81,24,,,,,,,,,,,,,329.65868160000537,329.65868160000537,330.1593728000007,,,,,,,,,1,009,21,SentadoSom,2023-06-17_13h21.11.047,face_recognition_ERP_protocol,2022.2.5,59.96548387342429,
Celebs/26_Scarlett_Johansson_0008.jpg,non_target,1,0,1,0,0,82,82,47,,,,,,,,,,,,,330.65969949998544,330.65969949998544,331.1603904000076,,,,,,,,,1,009,21,SentadoSom,2023-06-17_13h21.11.047,face_recognition_ERP_protocol,2022.2.5,59.96548387342429,
Celebs/20_Margot_Robbie_0006.jpg,non_target,1,0,1,0,0,83,83,35,,,,,,,,,,,,,331.6609199999948,331.6609199999948,332.1614397999947,,,,,,,,,1,009,21,SentadoSom,2023-06-17_13h21.11.047,face_recognition_ERP_protocol,2022.2.5,59.96548387342429,
Celebs/55_Jackie_Chan_0015.jpg,non_target,1,0,1,0,0,84,84,30,,,,,,,,,,,,,332.6621499999892,332.6621499999892,333.1625274999824,,,,,,,,,1,009,21,SentadoSom,2023-06-17_13h21.11.047,face_recognition_ERP_protocol,2022.2.5,59.96548387342429,
Celebs/45_Will_Smith_0014.jpg,non_target,1,0,1,0,0,85,85,59,,,,,,,,,,,,,333.66306469999836,333.66306469999836,334.16370689999894,,,,,,,,,1,009,21,SentadoSom,2023-06-17_13h21.11.047,face_recognition_ERP_protocol,2022.2.5,59.96548387342429,
Celebs/40_Will_Smith_0012.jpg,non_target,1,0,1,0,0,86,86,110,,,,,,,,,,,,,334.6640133000037,334.6640133000037,335.16475940000964,,,,,,,,,1,009,21,SentadoSom,2023-06-17_13h21.11.047,face_recognition_ERP_protocol,2022.2.5,59.96548387342429,
Celebs/40_Jim_Parsons_0015.jpg,non_target,1,0,1,0,0,87,87,45,,,,,,,,,,,,,335.66509419999784,335.66509419999784,336.1658296000096,,,,,,,,,1,009,21,SentadoSom,2023-06-17_13h21.11.047,face_recognition_ERP_protocol,2022.2.5,59.96548387342429,
Celebs/14_Emma_Watson_0013.jpg,non_target,1,0,1,0,0,88,88,20,,,,,,,,,,,,,336.6665279000008,336.6665279000008,337.1667756999959,,,,,,,,,1,009,21,SentadoSom,2023-06-17_13h21.11.047,face_recognition_ERP_protocol,2022.2.5,59.96548387342429,
Celebs/40_Jim_Parsons_0004.jpg,non_target,1,0,1,0,0,89,89,73,,,,,,,,,,,,,337.66727179999,337.66727179999,338.1679030999949,,,,,,,,,1,009,21,SentadoSom,2023-06-17_13h21.11.047,face_recognition_ERP_protocol,2022.2.5,59.96548387342429,
Celebs/37_Neil_Patrick_Harris_0014.jpg,non_target,1,0,1,0,0,90,90,37,,,,,,,,,,,,,338.6691464000032,338.6691464000032,339.1690057000087,,,,,,,,,1,009,21,SentadoSom,2023-06-17_13h21.11.047,face_recognition_ERP_protocol,2022.2.5,59.96548387342429,
Celebs/14_Emma_Watson_0005.jpg,non_target,1,0,1,0,0,91,91,26,,,,,,,,,,,,,339.67001820000587,339.67001820000587,340.1701667000016,,,,,,,,,1,009,21,SentadoSom,2023-06-17_13h21.11.047,face_recognition_ERP_protocol,2022.2.5,59.96548387342429,
Celebs/18_Daniel_Radcliffe_0008.jpg,target,1,0,1,0,0,92,92,28,,,,,,,,,,,,,340.6713052999985,340.6713052999985,341.17123989999527,,,,,,,,,1,009,21,SentadoSom,2023-06-17_13h21.11.047,face_recognition_ERP_protocol,2022.2.5,59.96548387342429,
Celebs/44_Will_Smith_0006.jpg,non_target,1,0,1,0,0,93,93,41,,,,,,,,,,,,,341.6720756999857,341.6720756999857,342.17239180000615,,,,,,,,,1,009,21,SentadoSom,2023-06-17_13h21.11.047,face_recognition_ERP_protocol,2022.2.5,59.96548387342429,
Celebs/44_Will_Smith_0007.jpg,non_target,1,0,1,0,0,94,94,65,,,,,,,,,,,,,342.6730309999839,342.6730309999839,343.17347529999097,,,,,,,,,1,009,21,SentadoSom,2023-06-17_13h21.11.047,face_recognition_ERP_protocol,2022.2.5,59.96548387342429,
Celebs/23_Emma_Stone_0014.jpg,non_target,1,0,1,0,0,95,95,12,,,,,,,,,,,,,343.6756808999926,343.6756808999926,344.1619137999951,,,,,,,,,1,009,21,SentadoSom,2023-06-17_13h21.11.047,face_recognition_ERP_protocol,2022.2.5,59.96548387342429,
Celebs/32_Jim_Parsons_0016.jpg,non_target,1,0,1,0,0,96,96,102,,,,,,,,,,,,,344.66317879999406,344.66317879999406,345.163026299997,,,,,,,,,1,009,21,SentadoSom,2023-06-17_13h21.11.047,face_recognition_ERP_protocol,2022.2.5,59.96548387342429,
Celebs/55_Jackie_Chan_0008.jpg,non_target,1,0,1,0,0,97,97,92,,,,,,,,,,,,,345.6762321999995,345.6762321999995,346.16009449999547,,,,,,,,,1,009,21,SentadoSom,2023-06-17_13h21.11.047,face_recognition_ERP_protocol,2022.2.5,59.96548387342429,
Celebs/22_Emma_Stone_0013.jpg,non_target,1,0,1,0,0,98,98,1,,,,,,,,,,,,,346.66051570000127,346.66051570000127,347.16127459998825,,,,,,,,,1,009,21,SentadoSom,2023-06-17_13h21.11.047,face_recognition_ERP_protocol,2022.2.5,59.96548387342429,
Celebs/16_Emma_Stone_0012.jpg,non_target,1,0,1,0,0,99,99,70,,,,,,,,,,,,,347.6618739999831,347.6618739999831,348.1621766999888,,,,,,,,,1,009,21,SentadoSom,2023-06-17_13h21.11.047,face_recognition_ERP_protocol,2022.2.5,59.96548387342429,
Celebs/21_Emma_Stone_0002.jpg,non_target,1,0,1,0,0,100,100,103,,,,,,,,,,,,,348.662771000003,348.662771000003,349.1633643999812,,,,,,,,,1,009,21,SentadoSom,2023-06-17_13h21.11.047,face_recognition_ERP_protocol,2022.2.5,59.96548387342429,
Celebs/39_Neil_Patrick_Harris_0001.jpg,non_target,1,0,1,0,0,101,101,4,,,,,,,,,,,,,349.66377409998677,349.66377409998677,350.1644285999937,,,,,,,,,1,009,21,SentadoSom,2023-06-17_13h21.11.047,face_recognition_ERP_protocol,2022.2.5,59.96548387342429,
Celebs/21_Daniel_Radcliffe_0009.jpg,target,1,0,1,0,0,102,102,83,,,,,,,,,,,,,350.66694120000466,350.66694120000466,351.16950260000885,,,,,,,,,1,009,21,SentadoSom,2023-06-17_13h21.11.047,face_recognition_ERP_protocol,2022.2.5,59.96548387342429,
Celebs/24_Emma_Stone_0015.jpg,non_target,1,0,1,0,0,103,103,57,,,,,,,,,,,,,351.6707888999954,351.6707888999954,352.1706343999831,,,,,,,,,1,009,21,SentadoSom,2023-06-17_13h21.11.047,face_recognition_ERP_protocol,2022.2.5,59.96548387342429,
Celebs/38_Will_Smith_0013.jpg,non_target,1,0,1,0,0,104,104,13,,,,,,,,,,,,,352.67192609998165,352.67192609998165,353.171700899984,,,,,,,,,1,009,21,SentadoSom,2023-06-17_13h21.11.047,face_recognition_ERP_protocol,2022.2.5,59.96548387342429,
Celebs/33_Neil_Patrick_Harris_0011.jpg,non_target,1,0,1,0,0,105,105,112,,,,,,,,,,,,,353.6849947999872,353.6849947999872,354.1688027000055,,,,,,,,,1,009,21,SentadoSom,2023-06-17_13h21.11.047,face_recognition_ERP_protocol,2022.2.5,59.96548387342429,
Celebs/14_Emma_Watson_0015.jpg,non_target,1,0,1,0,0,106,106,56,,,,,,,,,,,,,354.66966409998713,354.66966409998713,355.1699416000047,,,,,,,,,1,009,21,SentadoSom,2023-06-17_13h21.11.047,face_recognition_ERP_protocol,2022.2.5,59.96548387342429,
Celebs/17_Margot_Robbie_0012.jpg,non_target,1,0,1,0,0,107,107,67,,,,,,,,,,,,,355.6703631999844,355.6703631999844,356.1711412000004,,,,,,,,,1,009,21,SentadoSom,2023-06-17_13h21.11.047,face_recognition_ERP_protocol,2022.2.5,59.96548387342429,
Celebs/38_Neil_Patrick_Harris_0006.jpg,non_target,1,0,1,0,0,108,108,31,,,,,,,,,,,,,356.6719158999913,356.6719158999913,357.1722169999848,,,,,,,,,1,009,21,SentadoSom,2023-06-17_13h21.11.047,face_recognition_ERP_protocol,2022.2.5,59.96548387342429,
Celebs/48_Johnny_Depp_0005.jpg,non_target,1,0,1,0,0,109,109,54,,,,,,,,,,,,,357.6725776999956,357.6725776999956,358.1732542999962,,,,,,,,,1,009,21,SentadoSom,2023-06-17_13h21.11.047,face_recognition_ERP_protocol,2022.2.5,59.96548387342429,
Celebs/14_Emma_Watson_0004.jpg,non_target,1,0,1,0,0,110,110,14,,,,,,,,,,,,,358.6736585999897,358.6736585999897,359.17430899999454,,,,,,,,,1,009,21,SentadoSom,2023-06-17_13h21.11.047,face_recognition_ERP_protocol,2022.2.5,59.96548387342429,
Celebs/23_Daniel_Radcliffe_0002.jpg,target,1,0,1,0,0,111,111,77,,,,,,,,,,,,,359.6580058999825,359.6580058999825,360.1587501000031,,,,,,,,,1,009,21,SentadoSom,2023-06-17_13h21.11.047,face_recognition_ERP_protocol,2022.2.5,59.96548387342429,
Celebs/28_Scarlett_Johansson_0005.jpg,non_target,1,0,1,0,0,112,112,50,,,,,,,,,,,,,360.659373100003,360.659373100003,361.15969529998256,,,,,,,,,1,009,21,SentadoSom,2023-06-17_13h21.11.047,face_recognition_ERP_protocol,2022.2.5,59.96548387342429,
Celebs/20_Emma_Watson_0007.jpg,non_target,1,0,1,0,0,113,113,96,,,,,,,,,,,,,361.66020529999514,361.66020529999514,362.1609446000075,,,,,,,,,1,009,21,SentadoSom,2023-06-17_13h21.11.047,face_recognition_ERP_protocol,2022.2.5,59.96548387342429,
Celebs/58_Jackie_Chan_0005.jpg,non_target,1,0,1,0,0,114,114,3,,,,,,,,,,,,,362.6613310999819,362.6613310999819,363.1623898999824,,,,,,,,,1,009,21,SentadoSom,2023-06-17_13h21.11.047,face_recognition_ERP_protocol,2022.2.5,59.96548387342429,
Celebs/22_Emma_Watson_0010.jpg,non_target,1,0,1,0,0,115,115,11,,,,,,,,,,,,,363.6630622000084,363.6630622000084,364.1635594999825,,,,,,,,,1,009,21,SentadoSom,2023-06-17_13h21.11.047,face_recognition_ERP_protocol,2022.2.5,59.96548387342429,
Celebs/36_Jim_Parsons_0011.jpg,non_target,1,0,1,0,0,116,116,86,,,,,,,,,,,,,364.6634778000007,364.6634778000007,365.1642278000072,,,,,,,,,1,009,21,SentadoSom,2023-06-17_13h21.11.047,face_recognition_ERP_protocol,2022.2.5,59.96548387342429,
Celebs/24_Scarlett_Johansson_0011.jpg,non_target,1,0,1,0,0,117,117,100,,,,,,,,,,,,,365.66517079999903,365.66517079999903,366.1652953999874,,,,,,,,,1,009,21,SentadoSom,2023-06-17_13h21.11.047,face_recognition_ERP_protocol,2022.2.5,59.96548387342429,
Celebs/17_Daniel_Radcliffe_0007.jpg,target,1,0,1,0,0,118,118,19,,,,,,,,,,,,,366.6659751999832,366.6659751999832,367.1663872000063,,,,,,,,,1,009,21,SentadoSom,2023-06-17_13h21.11.047,face_recognition_ERP_protocol,2022.2.5,59.96548387342429,
Celebs/18_Daniel_Radcliffe_0007.jpg,target,1,0,1,0,0,119,119,81,,,,,,,,,,,,,367.66702429999714,367.66702429999714,368.1675563000026,,,,,,,,,1,009,21,SentadoSom,2023-06-17_13h21.11.047,face_recognition_ERP_protocol,2022.2.5,59.96548387342429,
Celebs/55_Jackie_Chan_0015.jpg,non_target,2,0,2,0,0,0,0,30,,,,,,,,,,,,,373.1563089999836,373.1563089999836,373.5900086000038,368.6678580000007,368.6678580000007,space,4.387821999989683,,,,,1,009,21,SentadoSom,2023-06-17_13h21.11.047,face_recognition_ERP_protocol,2022.2.5,59.96548387342429,
Celebs/43_Will_Smith_0010.jpg,non_target,2,0,2,0,0,1,1,22,,,,,,,,,,,,,374.0904684999841,374.0904684999841,374.59120319999056,,,,,,,,,1,009,21,SentadoSom,2023-06-17_13h21.11.047,face_recognition_ERP_protocol,2022.2.5,59.96548387342429,
Celebs/47_Johnny_Depp_0003.jpg,non_target,2,0,2,0,0,2,2,9,,,,,,,,,,,,,375.091700399993,375.091700399993,375.57564470000216,,,,,,,,,1,009,21,SentadoSom,2023-06-17_13h21.11.047,face_recognition_ERP_protocol,2022.2.5,59.96548387342429,
Celebs/44_Will_Smith_0006.jpg,non_target,2,0,2,0,0,3,3,41,,,,,,,,,,,,,376.07601029999205,376.07601029999205,376.5765591999807,,,,,,,,,1,009,21,SentadoSom,2023-06-17_13h21.11.047,face_recognition_ERP_protocol,2022.2.5,59.96548387342429,
Celebs/23_Daniel_Radcliffe_0019.jpg,target,2,0,2,0,0,4,4,6,,,,,,,,,,,,,377.0771255999862,377.0771255999862,377.5777024999843,,,,,,,,,1,009,21,SentadoSom,2023-06-17_13h21.11.047,face_recognition_ERP_protocol,2022.2.5,59.96548387342429,
Celebs/21_Daniel_Radcliffe_0009.jpg,target,2,0,2,0,0,5,5,83,,,,,,,,,,,,,378.07831189999706,378.07831189999706,378.57902239999385,,,,,,,,,1,009,21,SentadoSom,2023-06-17_13h21.11.047,face_recognition_ERP_protocol,2022.2.5,59.96548387342429,
Celebs/51_Jackie_Chan_0006.jpg,non_target,2,0,2,0,0,6,6,97,,,,,,,,,,,,,379.079236199992,379.079236199992,379.57986140000867,,,,,,,,,1,009,21,SentadoSom,2023-06-17_13h21.11.047,face_recognition_ERP_protocol,2022.2.5,59.96548387342429,
Celebs/34_Neil_Patrick_Harris_0004.jpg,non_target,2,0,2,0,0,7,7,104,,,,,,,,,,,,,380.0804572000052,380.0804572000052,380.58097209999687,,,,,,,,,1,009,21,SentadoSom,2023-06-17_13h21.11.047,face_recognition_ERP_protocol,2022.2.5,59.96548387342429,
Celebs/20_Emma_Stone_0005.jpg,non_target,2,0,2,0,0,8,8,63,,,,,,,,,,,,,381.08160340000177,381.08160340000177,381.5820304999943,,,,,,,,,1,009,21,SentadoSom,2023-06-17_13h21.11.047,face_recognition_ERP_protocol,2022.2.5,59.96548387342429,
Celebs/35_Neil_Patrick_Harris_0009.jpg,non_target,2,0,2,0,0,9,9,87,,,,,,,,,,,,,382.08306969999103,382.08306969999103,382.5832841999945,,,,,,,,,1,009,21,SentadoSom,2023-06-17_13h21.11.047,face_recognition_ERP_protocol,2022.2.5,59.96548387342429,
Celebs/18_Emma_Stone_0016.jpg,non_target,2,0,2,0,0,10,10,52,,,,,,,,,,,,,383.08396669998183,383.08396669998183,383.5843507999962,,,,,,,,,1,009,21,SentadoSom,2023-06-17_13h21.11.047,face_recognition_ERP_protocol,2022.2.5,59.96548387342429,
Celebs/43_Will_Smith_0007.jpg,non_target,2,0,2,0,0,11,11,74,,,,,,,,,,,,,384.0847177999967,384.0847177999967,384.58546229999047,,,,,,,,,1,009,21,SentadoSom,2023-06-17_13h21.11.047,face_recognition_ERP_protocol,2022.2.5,59.96548387342429,
Celebs/14_Emma_Watson_0004.jpg,non_target,2,0,2,0,0,12,12,14,,,,,,,,,,,,,385.0863465000002,385.0863465000002,385.58649749998585,,,,,,,,,1,009,21,SentadoSom,2023-06-17_13h21.11.047,face_recognition_ERP_protocol,2022.2.5,59.96548387342429,
Celebs/50_Johnny_Depp_0010.jpg,non_target,2,0,2,0,0,13,13,115,,,,,,,,,,,,,386.0870329999889,386.0870329999889,386.58765969998785,,,,,,,,,1,009,21,SentadoSom,2023-06-17_13h21.11.047,face_recognition_ERP_protocol,2022.2.5,59.96548387342429,
Celebs/14_Emma_Watson_0015.jpg,non_target,2,0,2,0,0,14,14,56,,,,,,,,,,,,,387.08926330000395,387.08926330000395,387.5886065000086,,,,,,,,,1,009,21,SentadoSom,2023-06-17_13h21.11.047,face_recognition_ERP_protocol,2022.2.5,59.96548387342429,
Celebs/37_Neil_Patrick_Harris_0010.jpg,non_target,2,0,2,0,0,15,15,93,,,,,,,,,,,,,388.0896845999814,388.0896845999814,388.58982679998735,,,,,,,,,1,009,21,SentadoSom,2023-06-17_13h21.11.047,face_recognition_ERP_protocol,2022.2.5,59.96548387342429,
Celebs/21_Daniel_Radcliffe_0002.jpg,target,2,0,2,0,0,16,16,60,,,,,,,,,,,,,389.0900915999955,389.0900915999955,389.57420850000926,,,,,390.07491669998853,,,,1,009,21,SentadoSom,2023-06-17_13h21.11.047,face_recognition_ERP_protocol,2022.2.5,59.96548387342429,
Celebs/21_Emma_Stone_0002.jpg,non_target,2,0,2,0,0,17,17,103,,,,,,,,,,,,,390.07491669998853,390.07491669998853,390.5753343999968,,,,,,390.5753343999968,390.5753343999968,,1,009,21,SentadoSom,2023-06-17_13h21.11.047,face_recognition_ERP_protocol,2022.2.5,59.96548387342429,
Celebs/44_Will_Smith_0015.jpg,non_target,2,0,2,0,0,18,18,101,,,,,,,,,,,,,391.0756466999883,391.0756466999883,391.5764307999925,,,,,,,,,1,009,21,SentadoSom,2023-06-17_13h21.11.047,face_recognition_ERP_protocol,2022.2.5,59.96548387342429,
Celebs/57_Jackie_Chan_0010.jpg,non_target,2,0,2,0,0,19,19,62,,,,,,,,,,,,,392.0768618999864,392.0768618999864,392.5775608999829,,,,,,,,,1,009,21,SentadoSom,2023-06-17_13h21.11.047,face_recognition_ERP_protocol,2022.2.5,59.96548387342429,
Celebs/48_Johnny_Depp_0001.jpg,non_target,2,0,2,0,0,20,20,106,,,,,,,,,,,,,393.07894139998825,393.07894139998825,393.5786203999887,,,,,,,,,1,009,21,SentadoSom,2023-06-17_13h21.11.047,face_recognition_ERP_protocol,2022.2.5,59.96548387342429,
Celebs/37_Neil_Patrick_Harris_0014.jpg,non_target,2,0,2,0,0,21,21,37,,,,,,,,,,,,,394.079559100006,394.079559100006,394.5796791999892,,,,,,,,,1,009,21,SentadoSom,2023-06-17_13h21.11.047,face_recognition_ERP_protocol,2022.2.5,59.96548387342429,
Celebs/22_Scarlett_Johansson_0005.jpg,non_target,2,0,2,0,0,22,22,44,,,,,,,,,,,,,395.08062910000444,395.08062910000444,395.58086580000236,,,,,,,,,1,009,21,SentadoSom,2023-06-17_13h21.11.047,face_recognition_ERP_protocol,2022.2.5,59.96548387342429,
Celebs/47_Johnny_Depp_0009.jpg,non_target,2,0,2,0,0,23,23,23,,,,,,,,,,,,,396.0824069000082,396.0824069000082,396.5818035999837,,,,,,,,,1,009,21,SentadoSom,2023-06-17_13h21.11.047,face_recognition_ERP_protocol,2022.2.5,59.96548387342429,
Celebs/33_Jim_Parsons_0011.jpg,non_target,2,0,2,0,0,24,24,34,,,,,,,,,,,,,397.08234619998257,397.08234619998257,397.582923799986,,,,,,,,,1,009,21,SentadoSom,2023-06-17_13h21.11.047,face_recognition_ERP_protocol,2022.2.5,59.96548387342429,
Celebs/37_Will_Smith_0015.jpg,non_target,2,0,2,0,0,25,25,113,,,,,,,,,,,,,398.08403440000257,398.08403440000257,398.5840634999913,,,,,,,,,1,009,21,SentadoSom,2023-06-17_13h21.11.047,face_recognition_ERP_protocol,2022.2.5,59.96548387342429,
Celebs/16_Emma_Stone_0010.jpg,non_target,2,0,2,0,0,26,26,95,,,,,,,,,,,,,399.0846648000006,399.0846648000006,399.5852765000018,,,,,,,,,1,009,21,SentadoSom,2023-06-17_13h21.11.047,face_recognition_ERP_protocol,2022.2.5,59.96548387342429,
Celebs/21_Emma_Stone_0003.jpg,non_target,2,0,2,0,0,27,27,25,,,,,,,,,,,,,400.08625329998904,400.08625329998904,400.58606100000907,,,,,,,,,1,009,21,SentadoSom,2023-06-17_13h21.11.047,face_recognition_ERP_protocol,2022.2.5,59.96548387342429,
Celebs/31_Neil_Patrick_Harris_0008.jpg,non_target,2,0,2,0,0,28,28,99,,,,,,,,,,,,,401.0873900000006,401.0873900000006,401.5873769999889,,,,,,,,,1,009,21,SentadoSom,2023-06-17_13h21.11.047,face_recognition_ERP_protocol,2022.2.5,59.96548387342429,
Celebs/38_Will_Smith_0013.jpg,non_target,2,0,2,0,0,29,29,13,,,,,,,,,,,,,402.0878426999843,402.0878426999843,402.5884379000054,,,,,,,,,1,009,21,SentadoSom,2023-06-17_13h21.11.047,face_recognition_ERP_protocol,2022.2.5,59.96548387342429,
Celebs/26_Scarlett_Johansson_0008.jpg,non_target,2,0,2,0,0,30,30,47,,,,,,,,,,,,,403.08893759999773,403.08893759999773,403.58954660000745,,,,,,,,,1,009,21,SentadoSom,2023-06-17_13h21.11.047,face_recognition_ERP_protocol,2022.2.5,59.96548387342429,
Celebs/16_Emma_Stone_0008.jpg,non_target,2,0,2,0,0,31,31,48,,,,,,,,,,,,,404.09026820000145,404.09026820000145,404.5905788000091,,,,,,,,,1,009,21,SentadoSom,2023-06-17_13h21.11.047,face_recognition_ERP_protocol,2022.2.5,59.96548387342429,
Celebs/29_Scarlett_Johansson_0010.jpg,non_target,2,0,2,0,0,32,32,85,,,,,,,,,,,,,405.0915756000031,405.0915756000031,405.59176779998234,,,,,,,,,1,009,21,SentadoSom,2023-06-17_13h21.11.047,face_recognition_ERP_protocol,2022.2.5,59.96548387342429,
Celebs/40_Will_Smith_0012.jpg,non_target,2,0,2,0,0,33,33,110,,,,,,,,,,,,,406.07541499999934,406.07541499999934,406.5762202999904,,,,,,,,,1,009,21,SentadoSom,2023-06-17_13h21.11.047,face_recognition_ERP_protocol,2022.2.5,59.96548387342429,
Celebs/54_Jackie_Chan_0014.jpg,non_target,2,0,2,0,0,34,34,111,,,,,,,,,,,,,407.07711640000343,407.07711640000343,407.5772280000092,,,,,,,,,1,009,21,SentadoSom,2023-06-17_13h21.11.047,face_recognition_ERP_protocol,2022.2.5,59.96548387342429,
Celebs/39_Jim_Parsons_0004.jpg,non_target,2,0,2,0,0,35,35,88,,,,,,,,,,,,,408.0776295999822,408.0776295999822,408.57834059998277,,,,,,,,,1,009,21,SentadoSom,2023-06-17_13h21.11.047,face_recognition_ERP_protocol,2022.2.5,59.96548387342429,
Celebs/20_Margot_Robbie_0004.jpg,non_target,2,0,2,0,0,36,36,116,,,,,,,,,,,,,409.078952699987,409.078952699987,409.5794487000094,,,,,,,,,1,009,21,SentadoSom,2023-06-17_13h21.11.047,face_recognition_ERP_protocol,2022.2.5,59.96548387342429,
Celebs/36_Jim_Parsons_0011.jpg,non_target,2,0,2,0,0,37,37,86,,,,,,,,,,,,,410.0798090999888,410.0798090999888,410.58051139998133,,,,,,,,,1,009,21,SentadoSom,2023-06-17_13h21.11.047,face_recognition_ERP_protocol,2022.2.5,59.96548387342429,
Celebs/14_Emma_Watson_0013.jpg,non_target,2,0,2,0,0,38,38,20,,,,,,,,,,,,,411.08094600000186,411.08094600000186,411.5816952000023,,,,,,,,,1,009,21,SentadoSom,2023-06-17_13h21.11.047,face_recognition_ERP_protocol,2022.2.5,59.96548387342429,
Celebs/24_Daniel_Radcliffe_0017.jpg,target,2,0,2,0,0,39,39,71,,,,,,,,,,,,,412.0818716000067,412.0818716000067,412.58266909999656,,,,,,,,,1,009,21,SentadoSom,2023-06-17_13h21.11.047,face_recognition_ERP_protocol,2022.2.5,59.96548387342429,
Celebs/45_Will_Smith_0014.jpg,non_target,2,0,2,0,0,40,40,59,,,,,,,,,,,,,413.08363129998907,413.08363129998907,413.58378859999357,,,,,,,,,1,009,21,SentadoSom,2023-06-17_13h21.11.047,face_recognition_ERP_protocol,2022.2.5,59.96548387342429,
Celebs/47_Johnny_Depp_0004.jpg,non_target,2,0,2,0,0,41,41,76,,,,,,,,,,,,,414.08437080000294,414.08437080000294,414.58491669999785,,,,,,,,,1,009,21,SentadoSom,2023-06-17_13h21.11.047,face_recognition_ERP_protocol,2022.2.5,59.96548387342429,
Celebs/43_Will_Smith_0006.jpg,non_target,2,0,2,0,0,42,42,61,,,,,,,,,,,,,415.0851698000042,415.0851698000042,415.58593450000626,,,,,,,,,1,009,21,SentadoSom,2023-06-17_13h21.11.047,face_recognition_ERP_protocol,2022.2.5,59.96548387342429,
Celebs/22_Emma_Stone_0013.jpg,non_target,2,0,2,0,0,43,43,1,,,,,,,,,,,,,416.08677570000873,416.08677570000873,416.5870738000085,,,,,,,,,1,009,21,SentadoSom,2023-06-17_13h21.11.047,face_recognition_ERP_protocol,2022.2.5,59.96548387342429,
Celebs/21_Scarlett_Johansson_0007.jpg,non_target,2,0,2,0,0,44,44,118,,,,,,,,,,,,,417.0874305999896,417.0874305999896,417.5881594000093,,,,,,,,,1,009,21,SentadoSom,2023-06-17_13h21.11.047,face_recognition_ERP_protocol,2022.2.5,59.96548387342429,
Celebs/29_Scarlett_Johansson_0016.jpg,non_target,2,0,2,0,0,45,45,2,,,,,,,,,,,,,418.0901351000066,418.0901351000066,418.5893250000081,,,,,,,,,1,009,21,SentadoSom,2023-06-17_13h21.11.047,face_recognition_ERP_protocol,2022.2.5,59.96548387342429,
Celebs/50_Johnny_Depp_0004.jpg,non_target,2,0,2,0,0,46,46,39,,,,,,,,,,,,,419.0901034999988,419.0901034999988,419.5903019999969,,,,,,,,,1,009,21,SentadoSom,2023-06-17_13h21.11.047,face_recognition_ERP_protocol,2022.2.5,59.96548387342429,
Celebs/52_Jackie_Chan_0002.jpg,non_target,2,0,2,0,0,47,47,68,,,,,,,,,,,,,420.0913479999872,420.0913479999872,420.5914105999982,,,,,,,,,1,009,21,SentadoSom,2023-06-17_13h21.11.047,face_recognition_ERP_protocol,2022.2.5,59.96548387342429,
Celebs/40_Jim_Parsons_0015.jpg,non_target,2,0,2,0,0,48,48,45,,,,,,,,,,,,,421.091791999992,421.091791999992,421.57586439998704,,,,,,,,,1,009,21,SentadoSom,2023-06-17_13h21.11.047,face_recognition_ERP_protocol,2022.2.5,59.96548387342429,
Celebs/33_Neil_Patrick_Harris_0011.jpg,non_target,2,0,2,0,0,49,49,112,,,,,,,,,,,,,422.07732489999034,422.07732489999034,422.5769647999841,,,,,,,,,1,009,21,SentadoSom,2023-06-17_13h21.11.047,face_recognition_ERP_protocol,2022.2.5,59.96548387342429,
Celebs/38_Neil_Patrick_Harris_0006.jpg,non_target,2,0,2,0,0,50,50,31,,,,,,,,,,,,,423.07755829999223,423.07755829999223,423.57800270000007,,,,,,,,,1,009,21,SentadoSom,2023-06-17_13h21.11.047,face_recognition_ERP_protocol,2022.2.5,59.96548387342429,
Celebs/22_Emma_Watson_0001.jpg,non_target,2,0,2,0,0,51,51,58,,,,,,,,,,,,,424.07880839999416,424.07880839999416,424.57921820000047,,,,,,,,,1,009,21,SentadoSom,2023-06-17_13h21.11.047,face_recognition_ERP_protocol,2022.2.5,59.96548387342429,
Celebs/24_Emma_Stone_0015.jpg,non_target,2,0,2,0,0,52,52,57,,,,,,,,,,,,,425.0796900999849,425.0796900999849,425.5802873999928,,,,,,,,,1,009,21,SentadoSom,2023-06-17_13h21.11.047,face_recognition_ERP_protocol,2022.2.5,59.96548387342429,
Celebs/20_Scarlett_Johansson_0011.jpg,non_target,2,0,2,0,0,53,53,109,,,,,,,,,,,,,426.0817887999874,426.0817887999874,426.58133620000444,,,,,,,,,1,009,21,SentadoSom,2023-06-17_13h21.11.047,face_recognition_ERP_protocol,2022.2.5,59.96548387342429,
Celebs/17_Daniel_Radcliffe_0007.jpg,target,2,0,2,0,0,54,54,19,,,,,,,,,,,,,427.08268259998295,427.08268259998295,427.58231369999703,,,,,,,,,1,009,21,SentadoSom,2023-06-17_13h21.11.047,face_recognition_ERP_protocol,2022.2.5,59.96548387342429,
Celebs/39_Neil_Patrick_Harris_0010.jpg,non_target,2,0,2,0,0,55,55,94,,,,,,,,,,,,,428.0831460999907,428.0831460999907,428.58347579999827,,,,,,,,,1,009,21,SentadoSom,2023-06-17_13h21.11.047,face_recognition_ERP_protocol,2022.2.5,59.96548387342429,
Celebs/50_Johnny_Depp_0018.jpg,non_target,2,0,2,0,0,56,56,24,,,,,,,,,,,,,429.0847414000018,429.0847414000018,429.5845328999858,,,,,,,,,1,009,21,SentadoSom,2023-06-17_13h21.11.047,face_recognition_ERP_protocol,2022.2.5,59.96548387342429,
Celebs/15_Margot_Robbie_0012.jpg,non_target,2,0,2,0,0,57,57,82,,,,,,,,,,,,,430.08495240000775,430.08495240000775,430.58567269999185,,,,,,,,,1,009,21,SentadoSom,2023-06-17_13h21.11.047,face_recognition_ERP_protocol,2022.2.5,59.96548387342429,
Celebs/16_Emma_Stone_0012.jpg,non_target,2,0,2,0,0,58,58,70,,,,,,,,,,,,,431.08609029999934,431.08609029999934,431.5868475000025,,,,,,,,,1,009,21,SentadoSom,2023-06-17_13h21.11.047,face_recognition_ERP_protocol,2022.2.5,59.96548387342429,
Celebs/21_Daniel_Radcliffe_0012.jpg,target,2,0,2,0,0,59,59,8,,,,,,,,,,,,,432.0874254000082,432.0874254000082,432.58785559999524,,,,,,,,,1,009,21,SentadoSom,2023-06-17_13h21.11.047,face_recognition_ERP_protocol,2022.2.5,59.96548387342429,
Celebs/17_Emma_Watson_0006.jpg,non_target,2,0,2,0,0,60,60,90,,,,,,,,,,,,,433.088594300003,433.088594300003,433.5890237999847,,,,,,,,,1,009,21,SentadoSom,2023-06-17_13h21.11.047,face_recognition_ERP_protocol,2022.2.5,59.96548387342429,
Celebs/17_Margot_Robbie_0006.jpg,non_target,2,0,2,0,0,61,61,17,,,,,,,,,,,,,434.08938459999627,434.08938459999627,434.59018179998384,,,,,,,,,1,009,21,SentadoSom,2023-06-17_13h21.11.047,face_recognition_ERP_protocol,2022.2.5,59.96548387342429,
Celebs/17_Margot_Robbie_0014.jpg,non_target,2,0,2,0,0,62,62,114,,,,,,,,,,,,,435.0903958999843,435.0903958999843,435.59127390000504,,,,,,,,,1,009,21,SentadoSom,2023-06-17_13h21.11.047,face_recognition_ERP_protocol,2022.2.5,59.96548387342429,
Celebs/16_Emma_Stone_0014.jpg,non_target,2,0,2,0,0,63,63,40,,,,,,,,,,,,,436.0917077999911,436.0917077999911,436.57559239998227,,,,,,,,,1,009,21,SentadoSom,2023-06-17_13h21.11.047,face_recognition_ERP_protocol,2022.2.5,59.96548387342429,
Celebs/20_Emma_Watson_0007.jpg,non_target,2,0,2,0,0,64,64,96,,,,,,,,,,,,,437.0761161999835,437.0761161999835,437.57655050000176,,,,,,,,,1,009,21,SentadoSom,2023-06-17_13h21.11.047,face_recognition_ERP_protocol,2022.2.5,59.96548387342429,
Celebs/15_Margot_Robbie_0005.jpg,non_target,2,0,2,0,0,65,65,80,,,,,,,,,,,,,438.0771288999822,438.0771288999822,438.5778840999992,,,,,,,,,1,009,21,SentadoSom,2023-06-17_13h21.11.047,face_recognition_ERP_protocol,2022.2.5,59.96548387342429,
Celebs/32_Jim_Parsons_0016.jpg,non_target,2,0,2,0,0,66,66,102,,,,,,,,,,,,,439.0788873999845,439.0788873999845,439.578887199983,,,,,,,,,1,009,21,SentadoSom,2023-06-17_13h21.11.047,face_recognition_ERP_protocol,2022.2.5,59.96548387342429,
Celebs/54_Jackie_Chan_0001.jpg,non_target,2,0,2,0,0,67,67,7,,,,,,,,,,,,,440.0792908000003,440.0792908000003,440.5799442999996,,,,,,,,,1,009,21,SentadoSom,2023-06-17_13h21.11.047,face_recognition_ERP_protocol,2022.2.5,59.96548387342429,
Celebs/39_Jim_Parsons_0010.jpg,non_target,2,0,2,0,0,68,68,0,,,,,,,,,,,,,441.08127199998125,441.08127199998125,441.581091,,,,,,,,,1,009,21,SentadoSom,2023-06-17_13h21.11.047,face_recognition_ERP_protocol,2022.2.5,59.96548387342429,
Celebs/22_Margot_Robbie_0010.jpg,non_target,2,0,2,0,0,69,69,18,,,,,,,,,,,,,442.08197909998125,442.08197909998125,442.5821624000091,,,,,,,,,1,009,21,SentadoSom,2023-06-17_13h21.11.047,face_recognition_ERP_protocol,2022.2.5,59.96548387342429,
Celebs/18_Daniel_Radcliffe_0007.jpg,target,2,0,2,0,0,70,70,81,,,,,,,,,,,,,443.0831727999903,443.0831727999903,443.5831766999909,,,,,,,,,1,009,21,SentadoSom,2023-06-17_13h21.11.047,face_recognition_ERP_protocol,2022.2.5,59.96548387342429,
Celebs/48_Johnny_Depp_0005.jpg,non_target,2,0,2,0,0,71,71,54,,,,,,,,,,,,,444.0845962000021,444.0845962000021,444.5843105999811,,,,,,,,,1,009,21,SentadoSom,2023-06-17_13h21.11.047,face_recognition_ERP_protocol,2022.2.5,59.96548387342429,
Celebs/28_Scarlett_Johansson_0005.jpg,non_target,2,0,2,0,0,72,72,50,,,,,,,,,,,,,445.0851163000043,445.0851163000043,445.585500199988,,,,,,,,,1,009,21,SentadoSom,2023-06-17_13h21.11.047,face_recognition_ERP_protocol,2022.2.5,59.96548387342429,
Celebs/19_Margot_Robbie_0001.jpg,non_target,2,0,2,0,0,73,73,51,,,,,,,,,,,,,446.08596939998097,446.08596939998097,446.5865077000053,,,,,,,,,1,009,21,SentadoSom,2023-06-17_13h21.11.047,face_recognition_ERP_protocol,2022.2.5,59.96548387342429,
Celebs/39_Jim_Parsons_0001.jpg,non_target,2,0,2,0,0,74,74,49,,,,,,,,,,,,,447.08715599999414,447.08715599999414,447.58769280000706,,,,,,,,,1,009,21,SentadoSom,2023-06-17_13h21.11.047,face_recognition_ERP_protocol,2022.2.5,59.96548387342429,
Celebs/14_Emma_Watson_0005.jpg,non_target,2,0,2,0,0,75,75,26,,,,,,,,,,,,,448.087942299986,448.087942299986,448.58865419999347,,,,,,,,,1,009,21,SentadoSom,2023-06-17_13h21.11.047,face_recognition_ERP_protocol,2022.2.5,59.96548387342429,
Celebs/18_Daniel_Radcliffe_0002.jpg,target,2,0,2,0,0,76,76,119,,,,,,,,,,,,,449.08894660000806,449.08894660000806,449.5897032000066,,,,,,,,,1,009,21,SentadoSom,2023-06-17_13h21.11.047,face_recognition_ERP_protocol,2022.2.5,59.96548387342429,
Celebs/36_Neil_Patrick_Harris_0007.jpg,non_target,2,0,2,0,0,77,77,5,,,,,,,,,,,,,450.0901268000016,450.0901268000016,450.59091709999484,,,,,,,,,1,009,21,SentadoSom,2023-06-17_13h21.11.047,face_recognition_ERP_protocol,2022.2.5,59.96548387342429,
Celebs/39_Jim_Parsons_0008.jpg,non_target,2,0,2,0,0,78,78,89,,,,,,,,,,,,,451.0912723999936,451.0912723999936,451.59198019999894,,,,,,,,,1,009,21,SentadoSom,2023-06-17_13h21.11.047,face_recognition_ERP_protocol,2022.2.5,59.96548387342429,
Celebs/44_Will_Smith_0007.jpg,non_target,2,0,2,0,0,79,79,65,,,,,,,,,,,,,452.0771790999861,452.0771790999861,452.5764668000047,,,,,,,,,1,009,21,SentadoSom,2023-06-17_13h21.11.047,face_recognition_ERP_protocol,2022.2.5,59.96548387342429,
Celebs/20_Margot_Robbie_0006.jpg,non_target,2,0,2,0,0,80,80,35,,,,,,,,,,,,,453.0767607000016,453.0767607000016,453.5774054999929,,,,,,,,,1,009,21,SentadoSom,2023-06-17_13h21.11.047,face_recognition_ERP_protocol,2022.2.5,59.96548387342429,
Celebs/22_Emma_Watson_0003.jpg,non_target,2,0,2,0,0,81,81,91,,,,,,,,,,,,,454.0788004999922,454.0788004999922,454.5786136999959,,,,,,,,,1,009,21,SentadoSom,2023-06-17_13h21.11.047,face_recognition_ERP_protocol,2022.2.5,59.96548387342429,
Celebs/23_Daniel_Radcliffe_0010.jpg,target,2,0,2,0,0,82,82,15,,,,,,,,,,,,,455.08096210000804,455.08096210000804,455.5836772999901,,,,,,,,,1,009,21,SentadoSom,2023-06-17_13h21.11.047,face_recognition_ERP_protocol,2022.2.5,59.96548387342429,
Celebs/39_Neil_Patrick_Harris_0001.jpg,non_target,2,0,2,0,0,83,83,4,,,,,,,,,,,,,456.0849603000097,456.0849603000097,456.5847517999937,,,,,,,,,1,009,21,SentadoSom,2023-06-17_13h21.11.047,face_recognition_ERP_protocol,2022.2.5,59.96548387342429,
Celebs/55_Jackie_Chan_0003.jpg,non_target,2,0,2,0,0,84,84,29,,,,,,,,,,,,,457.0860176999995,457.0860176999995,457.58591769999475,,,,,,,,,1,009,21,SentadoSom,2023-06-17_13h21.11.047,face_recognition_ERP_protocol,2022.2.5,59.96548387342429,
Celebs/42_Will_Smith_0012.jpg,non_target,2,0,2,0,0,85,85,64,,,,,,,,,,,,,458.0871169999882,458.0871169999882,458.58692879998125,,,,,,,,,1,009,21,SentadoSom,2023-06-17_13h21.11.047,face_recognition_ERP_protocol,2022.2.5,59.96548387342429,
Celebs/25_Scarlett_Johansson_0010.jpg,non_target,2,0,2,0,0,86,86,32,,,,,,,,,,,,,459.0882547000074,459.0882547000074,459.58805249998113,,,,,,,,,1,009,21,SentadoSom,2023-06-17_13h21.11.047,face_recognition_ERP_protocol,2022.2.5,59.96548387342429,
Celebs/57_Jackie_Chan_0008.jpg,non_target,2,0,2,0,0,87,87,72,,,,,,,,,,,,,460.0893257999851,460.0893257999851,460.5891369000019,,,,,,,,,1,009,21,SentadoSom,2023-06-17_13h21.11.047,face_recognition_ERP_protocol,2022.2.5,59.96548387342429,
Celebs/19_Margot_Robbie_0004.jpg,non_target,2,0,2,0,0,88,88,42,,,,,,,,,,,,,461.0904377999832,461.0904377999832,461.5902234999812,,,,,,,,,1,009,21,SentadoSom,2023-06-17_13h21.11.047,face_recognition_ERP_protocol,2022.2.5,59.96548387342429,
Celebs/26_Scarlett_Johansson_0003.jpg,non_target,2,0,2,0,0,89,89,105,,,,,,,,,,,,,462.0915347999835,462.0915347999835,462.5912845999992,,,,,,,,,1,009,21,SentadoSom,2023-06-17_13h21.11.047,face_recognition_ERP_protocol,2022.2.5,59.96548387342429,
Celebs/23_Emma_Stone_0014.jpg,non_target,2,0,2,0,0,90,90,12,,,,,,,,,,,,,463.0926552999881,463.0926552999881,463.57571770000504,,,,,,,,,1,009,21,SentadoSom,2023-06-17_13h21.11.047,face_recognition_ERP_protocol,2022.2.5,59.96548387342429,
Celebs/19_Emma_Stone_0006.jpg,non_target,2,0,2,0,0,91,91,66,,,,,,,,,,,,,464.0770564999839,464.0770564999839,464.5768043999851,,,,,,,,,1,009,21,SentadoSom,2023-06-17_13h21.11.047,face_recognition_ERP_protocol,2022.2.5,59.96548387342429,
Celebs/32_Jim_Parsons_0010.jpg,non_target,2,0,2,0,0,92,92,98,,,,,,,,,,,,,465.0781100000022,465.0781100000022,465.57794429999194,,,,,,,,,1,009,21,SentadoSom,2023-06-17_13h21.11.047,face_recognition_ERP_protocol,2022.2.5,59.96548387342429,
Celebs/55_Jackie_Chan_0008.jpg,non_target,2,0,2,0,0,93,93,92,,,,,,,,,,,,,466.0792433999886,466.0792433999886,466.57903459999943,,,,,,,,,1,009,21,SentadoSom,2023-06-17_13h21.11.047,face_recognition_ERP_protocol,2022.2.5,59.96548387342429,
Celebs/27_Scarlett_Johansson_0012.jpg,non_target,2,0,2,0,0,94,94,78,,,,,,,,,,,,,467.08029039998655,467.08029039998655,467.58010769999237,,,,,,,,,1,009,21,SentadoSom,2023-06-17_13h21.11.047,face_recognition_ERP_protocol,2022.2.5,59.96548387342429,
Celebs/45_Johnny_Depp_0003.jpg,non_target,2,0,2,0,0,95,95,108,,,,,,,,,,,,,468.0814246000082,468.0814246000082,468.58122289998573,,,,,,,,,1,009,21,SentadoSom,2023-06-17_13h21.11.047,face_recognition_ERP_protocol,2022.2.5,59.96548387342429,
Celebs/21_Daniel_Radcliffe_0008.jpg,target,2,0,2,0,0,96,96,16,,,,,,,,,,,,,469.0825026000093,469.0825026000093,469.58230609999737,,,,,,,,,1,009,21,SentadoSom,2023-06-17_13h21.11.047,face_recognition_ERP_protocol,2022.2.5,59.96548387342429,
Celebs/36_Neil_Patrick_Harris_0010.jpg,non_target,2,0,2,0,0,97,97,79,,,,,,,,,,,,,470.08362379999016,470.08362379999016,470.5833961000026,,,,,,,,,1,009,21,SentadoSom,2023-06-17_13h21.11.047,face_recognition_ERP_protocol,2022.2.5,59.96548387342429,
Celebs/40_Jim_Parsons_0004.jpg,non_target,2,0,2,0,0,98,98,73,,,,,,,,,,,,,471.0846971999854,471.0846971999854,471.58448510000017,,,,,,,,,1,009,21,SentadoSom,2023-06-17_13h21.11.047,face_recognition_ERP_protocol,2022.2.5,59.96548387342429,
Celebs/21_Emma_Watson_0004.jpg,non_target,2,0,2,0,0,99,99,21,,,,,,,,,,,,,472.0857929000049,472.0857929000049,472.58557460000156,,,,,,,,,1,009,21,SentadoSom,2023-06-17_13h21.11.047,face_recognition_ERP_protocol,2022.2.5,59.96548387342429,
Celebs/14_Emma_Watson_0008.jpg,non_target,2,0,2,0,0,100,100,36,,,,,,,,,,,,,473.0873306999856,473.0873306999856,473.5866867000004,,,,,,,,,1,009,21,SentadoSom,2023-06-17_13h21.11.047,face_recognition_ERP_protocol,2022.2.5,59.96548387342429,
Celebs/22_Emma_Watson_0010.jpg,non_target,2,0,2,0,0,101,101,11,,,,,,,,,,,,,474.0880158999935,474.0880158999935,474.587803900009,,,,,,,,,1,009,21,SentadoSom,2023-06-17_13h21.11.047,face_recognition_ERP_protocol,2022.2.5,59.96548387342429,
Celebs/48_Johnny_Depp_0003.jpg,non_target,2,0,2,0,0,102,102,55,,,,,,,,,,,,,475.08906689999276,475.08906689999276,475.5888703999808,,,,,,,,,1,009,21,SentadoSom,2023-06-17_13h21.11.047,face_recognition_ERP_protocol,2022.2.5,59.96548387342429,
Celebs/34_Neil_Patrick_Harris_0007.jpg,non_target,2,0,2,0,0,103,103,117,,,,,,,,,,,,,476.0901316999807,476.0901316999807,476.5900205000071,,,,,,,,,1,009,21,SentadoSom,2023-06-17_13h21.11.047,face_recognition_ERP_protocol,2022.2.5,59.96548387342429,
Celebs/50_Johnny_Depp_0008.jpg,non_target,2,0,2,0,0,104,104,84,,,,,,,,,,,,,477.0912401000096,477.0912401000096,477.591327800008,,,,,,,,,1,009,21,SentadoSom,2023-06-17_13h21.11.047,face_recognition_ERP_protocol,2022.2.5,59.96548387342429,
Celebs/23_Daniel_Radcliffe_0002.jpg,target,2,0,2,0,0,105,105,77,,,,,,,,,,,,,478.1043112000043,478.1043112000043,478.58819740000763,,,,,,,,,1,009,21,SentadoSom,2023-06-17_13h21.11.047,face_recognition_ERP_protocol,2022.2.5,59.96548387342429,
Celebs/58_Jackie_Chan_0005.jpg,non_target,2,0,2,0,0,106,106,3,,,,,,,,,,,,,479.0886737999972,479.0886737999972,479.5892465999932,,,,,,,,,1,009,21,SentadoSom,2023-06-17_13h21.11.047,face_recognition_ERP_protocol,2022.2.5,59.96548387342429,
Celebs/24_Scarlett_Johansson_0001.jpg,non_target,2,0,2,0,0,107,107,10,,,,,,,,,,,,,480.09021749999374,480.09021749999374,480.59025290000136,,,,,,,,,1,009,21,SentadoSom,2023-06-17_13h21.11.047,face_recognition_ERP_protocol,2022.2.5,59.96548387342429,
Celebs/16_Margot_Robbie_0009.jpg,non_target,2,0,2,0,0,108,108,107,,,,,,,,,,,,,481.0915960999846,481.0915960999846,481.59145780000836,,,,,,,,,1,009,21,SentadoSom,2023-06-17_13h21.11.047,face_recognition_ERP_protocol,2022.2.5,59.96548387342429,
Celebs/50_Jackie_Chan_0014.jpg,non_target,2,0,2,0,0,109,109,38,,,,,,,,,,,,,482.07521139999153,482.07521139999153,482.57599809998646,,,,,,,,,1,009,21,SentadoSom,2023-06-17_13h21.11.047,face_recognition_ERP_protocol,2022.2.5,59.96548387342429,
Celebs/49_Johnny_Depp_0013.jpg,non_target,2,0,2,0,0,110,110,33,,,,,,,,,,,,,483.07673289999366,483.07673289999366,483.57705220000935,,,,,,,,,1,009,21,SentadoSom,2023-06-17_13h21.11.047,face_recognition_ERP_protocol,2022.2.5,59.96548387342429,
Celebs/18_Daniel_Radcliffe_0008.jpg,target,2,0,2,0,0,111,111,28,,,,,,,,,,,,,484.0788384999905,484.0788384999905,484.5781463999883,,,,,,,,,1,009,21,SentadoSom,2023-06-17_13h21.11.047,face_recognition_ERP_protocol,2022.2.5,59.96548387342429,
Celebs/50_Jackie_Chan_0012.jpg,non_target,2,0,2,0,0,112,112,43,,,,,,,,,,,,,485.0783999999985,485.0783999999985,485.5792269000085,,,,,,,,,1,009,21,SentadoSom,2023-06-17_13h21.11.047,face_recognition_ERP_protocol,2022.2.5,59.96548387342429,
Celebs/32_Jim_Parsons_0018.jpg,non_target,2,0,2,0,0,113,113,46,,,,,,,,,,,,,486.0797782999871,486.0797782999871,486.5802134999831,,,,,,,,,1,009,21,SentadoSom,2023-06-17_13h21.11.047,face_recognition_ERP_protocol,2022.2.5,59.96548387342429,
Celebs/45_Will_Smith_0010.jpg,non_target,2,0,2,0,0,114,114,69,,,,,,,,,,,,,487.08125859999564,487.08125859999564,487.5812796999817,,,,,,,,,1,009,21,SentadoSom,2023-06-17_13h21.11.047,face_recognition_ERP_protocol,2022.2.5,59.96548387342429,
Celebs/18_Emma_Watson_0004.jpg,non_target,2,0,2,0,0,115,115,75,,,,,,,,,,,,,488.0817342000082,488.0817342000082,488.5825458999898,,,,,,,,,1,009,21,SentadoSom,2023-06-17_13h21.11.047,face_recognition_ERP_protocol,2022.2.5,59.96548387342429,
Celebs/24_Scarlett_Johansson_0011.jpg,non_target,2,0,2,0,0,116,116,100,,,,,,,,,,,,,489.08275269999285,489.08275269999285,489.58346989998245,,,,,,,,,1,009,21,SentadoSom,2023-06-17_13h21.11.047,face_recognition_ERP_protocol,2022.2.5,59.96548387342429,
Celebs/17_Margot_Robbie_0012.jpg,non_target,2,0,2,0,0,117,117,67,,,,,,,,,,,,,490.0850557000085,490.0850557000085,490.5845643999928,,,,,,,,,1,009,21,SentadoSom,2023-06-17_13h21.11.047,face_recognition_ERP_protocol,2022.2.5,59.96548387342429,
Celebs/38_Jim_Parsons_0003.jpg,non_target,2,0,2,0,0,118,118,53,,,,,,,,,,,,,491.0851999000006,491.0851999000006,491.5857195999997,,,,,,,,,1,009,21,SentadoSom,2023-06-17_13h21.11.047,face_recognition_ERP_protocol,2022.2.5,59.96548387342429,
Celebs/21_Margot_Robbie_0003.jpg,non_target,2,0,2,0,0,119,119,27,,,,,,,,,,,,,492.08616499998607,492.08616499998607,492.5868486999825,,,,,,,,,1,009,21,SentadoSom,2023-06-17_13h21.11.047,face_recognition_ERP_protocol,2022.2.5,59.96548387342429,
Celebs/21_Emma_Watson_0004.jpg,non_target,3,0,3,0,0,0,0,21,,,,,,,,,,,,,498.8602347999986,498.8602347999986,499.2940291999839,493.08734279999044,493.08734279999044,space,5.664683699986199,,,,,1,009,21,SentadoSom,2023-06-17_13h21.11.047,face_recognition_ERP_protocol,2022.2.5,59.96548387342429,
Celebs/39_Jim_Parsons_0001.jpg,non_target,3,0,3,0,0,1,1,49,,,,,,,,,,,,,499.79471839999314,499.79471839999314,500.29525450000074,,,,,,,,,1,009,21,SentadoSom,2023-06-17_13h21.11.047,face_recognition_ERP_protocol,2022.2.5,59.96548387342429,
Celebs/37_Neil_Patrick_Harris_0014.jpg,non_target,3,0,3,0,0,2,2,37,,,,,,,,,,,,,500.7961525999999,500.7961525999999,501.29636000000755,,,,,,,,,1,009,21,SentadoSom,2023-06-17_13h21.11.047,face_recognition_ERP_protocol,2022.2.5,59.96548387342429,
Celebs/34_Neil_Patrick_Harris_0007.jpg,non_target,3,0,3,0,0,3,3,117,,,,,,,,,,,,,501.7811653999961,501.7811653999961,502.2807581000088,,,,,,,,,1,009,21,SentadoSom,2023-06-17_13h21.11.047,face_recognition_ERP_protocol,2022.2.5,59.96548387342429,
Celebs/25_Scarlett_Johansson_0010.jpg,non_target,3,0,3,0,0,4,4,32,,,,,,,,,,,,,502.78102759999456,502.78102759999456,503.2819740999839,,,,,,,,,1,009,21,SentadoSom,2023-06-17_13h21.11.047,face_recognition_ERP_protocol,2022.2.5,59.96548387342429,
Celebs/54_Jackie_Chan_0001.jpg,non_target,3,0,3,0,0,5,5,7,,,,,,,,,,,,,503.78223640000215,503.78223640000215,504.28290049999487,,,,,,,,,1,009,21,SentadoSom,2023-06-17_13h21.11.047,face_recognition_ERP_protocol,2022.2.5,59.96548387342429,
Celebs/21_Scarlett_Johansson_0007.jpg,non_target,3,0,3,0,0,6,6,118,,,,,,,,,,,,,504.7832242999866,504.7832242999866,505.2840843999875,,,,,,,,,1,009,21,SentadoSom,2023-06-17_13h21.11.047,face_recognition_ERP_protocol,2022.2.5,59.96548387342429,
Celebs/55_Jackie_Chan_0008.jpg,non_target,3,0,3,0,0,7,7,92,,,,,,,,,,,,,505.7852283999964,505.7852283999964,506.2851274999848,,,,,,,,,1,009,21,SentadoSom,2023-06-17_13h21.11.047,face_recognition_ERP_protocol,2022.2.5,59.96548387342429,
Celebs/47_Johnny_Depp_0004.jpg,non_target,3,0,3,0,0,8,8,76,,,,,,,,,,,,,506.78547149998485,506.78547149998485,507.28611630000523,,,,,,,,,1,009,21,SentadoSom,2023-06-17_13h21.11.047,face_recognition_ERP_protocol,2022.2.5,59.96548387342429,
Celebs/47_Johnny_Depp_0009.jpg,non_target,3,0,3,0,0,9,9,23,,,,,,,,,,,,,507.78741089999676,507.78741089999676,508.287322499993,,,,,,,,,1,009,21,SentadoSom,2023-06-17_13h21.11.047,face_recognition_ERP_protocol,2022.2.5,59.96548387342429,
Celebs/21_Daniel_Radcliffe_0012.jpg,target,3,0,3,0,0,10,10,8,,,,,,,,,,,,,508.7889892999956,508.7889892999956,509.2883995999873,,,,,,,,,1,009,21,SentadoSom,2023-06-17_13h21.11.047,face_recognition_ERP_protocol,2022.2.5,59.96548387342429,
Celebs/24_Daniel_Radcliffe_0017.jpg,target,3,0,3,0,0,11,11,71,,,,,,,,,,,,,509.7886540000036,509.7886540000036,510.28952469999786,,,,,,,,,1,009,21,SentadoSom,2023-06-17_13h21.11.047,face_recognition_ERP_protocol,2022.2.5,59.96548387342429,
Celebs/18_Emma_Watson_0004.jpg,non_target,3,0,3,0,0,12,12,75,,,,,,,,,,,,,510.79003959998954,510.79003959998954,511.2906832000008,,,,,,,,,1,009,21,SentadoSom,2023-06-17_13h21.11.047,face_recognition_ERP_protocol,2022.2.5,59.96548387342429,
Celebs/32_Jim_Parsons_0018.jpg,non_target,3,0,3,0,0,13,13,46,,,,,,,,,,,,,511.79222139998456,511.79222139998456,512.2916859999823,,,,,,,,,1,009,21,SentadoSom,2023-06-17_13h21.11.047,face_recognition_ERP_protocol,2022.2.5,59.96548387342429,
Celebs/19_Margot_Robbie_0001.jpg,non_target,3,0,3,0,0,14,14,51,,,,,,,,,,,,,512.7921100000094,512.7921100000094,513.2927975000057,,,,,,,,,1,009,21,SentadoSom,2023-06-17_13h21.11.047,face_recognition_ERP_protocol,2022.2.5,59.96548387342429,
Celebs/50_Johnny_Depp_0018.jpg,non_target,3,0,3,0,0,15,15,24,,,,,,,,,,,,,513.7932992999849,513.7932992999849,514.2938157999888,,,,,,,,,1,009,21,SentadoSom,2023-06-17_13h21.11.047,face_recognition_ERP_protocol,2022.2.5,59.96548387342429,
Celebs/20_Scarlett_Johansson_0011.jpg,non_target,3,0,3,0,0,16,16,109,,,,,,,,,,,,,514.7941842,514.7941842,515.2949275999854,,,,,,,,,1,009,21,SentadoSom,2023-06-17_13h21.11.047,face_recognition_ERP_protocol,2022.2.5,59.96548387342429,
Celebs/26_Scarlett_Johansson_0003.jpg,non_target,3,0,3,0,0,17,17,105,,,,,,,,,,,,,515.7953084000037,515.7953084000037,516.2960753999942,,,,,,,,,1,009,21,SentadoSom,2023-06-17_13h21.11.047,face_recognition_ERP_protocol,2022.2.5,59.96548387342429,
Celebs/44_Will_Smith_0015.jpg,non_target,3,0,3,0,0,18,18,101,,,,,,,,,,,,,516.7963961999922,516.7963961999922,517.2804082999937,,,,,,,,,1,009,21,SentadoSom,2023-06-17_13h21.11.047,face_recognition_ERP_protocol,2022.2.5,59.96548387342429,
Celebs/32_Jim_Parsons_0010.jpg,non_target,3,0,3,0,0,19,19,98,,,,,,,,,,,,,517.7813523999939,517.7813523999939,518.2814910000016,,,,,,,,,1,009,21,SentadoSom,2023-06-17_13h21.11.047,face_recognition_ERP_protocol,2022.2.5,59.96548387342429,
Celebs/14_Emma_Watson_0013.jpg,non_target,3,0,3,0,0,20,20,20,,,,,,,,,,,,,518.7826275999832,518.7826275999832,519.282642599981,,,,,,,,,1,009,21,SentadoSom,2023-06-17_13h21.11.047,face_recognition_ERP_protocol,2022.2.5,59.96548387342429,
Celebs/36_Neil_Patrick_Harris_0010.jpg,non_target,3,0,3,0,0,21,21,79,,,,,,,,,,,,,519.7834432999953,519.7834432999953,520.2837697000068,,,,,,,,,1,009,21,SentadoSom,2023-06-17_13h21.11.047,face_recognition_ERP_protocol,2022.2.5,59.96548387342429,
Celebs/19_Margot_Robbie_0004.jpg,non_target,3,0,3,0,0,22,22,42,,,,,,,,,,,,,520.7840699999942,520.7840699999942,521.284897799982,,,,,,,,,1,009,21,SentadoSom,2023-06-17_13h21.11.047,face_recognition_ERP_protocol,2022.2.5,59.96548387342429,
Celebs/44_Will_Smith_0006.jpg,non_target,3,0,3,0,0,23,23,41,,,,,,,,,,,,,521.7853857000009,521.7853857000009,522.2859081999923,,,,,,,,,1,009,21,SentadoSom,2023-06-17_13h21.11.047,face_recognition_ERP_protocol,2022.2.5,59.96548387342429,
Celebs/19_Emma_Stone_0006.jpg,non_target,3,0,3,0,0,24,24,66,,,,,,,,,,,,,522.7866022000089,522.7866022000089,523.2870231999841,,,,,,,,,1,009,21,SentadoSom,2023-06-17_13h21.11.047,face_recognition_ERP_protocol,2022.2.5,59.96548387342429,
Celebs/22_Scarlett_Johansson_0005.jpg,non_target,3,0,3,0,0,25,25,44,,,,,,,,,,,,,523.7880276000069,523.7880276000069,524.2881868999975,,,,,,,,,1,009,21,SentadoSom,2023-06-17_13h21.11.047,face_recognition_ERP_protocol,2022.2.5,59.96548387342429,
Celebs/39_Jim_Parsons_0010.jpg,non_target,3,0,3,0,0,26,26,0,,,,,,,,,,,,,524.7886527999945,524.7886527999945,525.2892225999967,,,,,,,,,1,009,21,SentadoSom,2023-06-17_13h21.11.047,face_recognition_ERP_protocol,2022.2.5,59.96548387342429,
Celebs/14_Emma_Watson_0004.jpg,non_target,3,0,3,0,0,27,27,14,,,,,,,,,,,,,525.7918161999842,525.7918161999842,526.2942897999892,,,,,,,,,1,009,21,SentadoSom,2023-06-17_13h21.11.047,face_recognition_ERP_protocol,2022.2.5,59.96548387342429,
Celebs/15_Margot_Robbie_0005.jpg,non_target,3,0,3,0,0,28,28,80,,,,,,,,,,,,,526.8075757999904,526.8075757999904,527.2913951000082,,,,,,,,,1,009,21,SentadoSom,2023-06-17_13h21.11.047,face_recognition_ERP_protocol,2022.2.5,59.96548387342429,
Celebs/40_Will_Smith_0012.jpg,non_target,3,0,3,0,0,29,29,110,,,,,,,,,,,,,527.7916409999889,527.7916409999889,528.2924058999924,,,,,,,,,1,009,21,SentadoSom,2023-06-17_13h21.11.047,face_recognition_ERP_protocol,2022.2.5,59.96548387342429,
Celebs/50_Johnny_Depp_0004.jpg,non_target,3,0,3,0,0,30,30,39,,,,,,,,,,,,,528.7954627999861,528.7954627999861,529.2808599999989,,,,,,,,,1,009,21,SentadoSom,2023-06-17_13h21.11.047,face_recognition_ERP_protocol,2022.2.5,59.96548387342429,
Celebs/43_Will_Smith_0010.jpg,non_target,3,0,3,0,0,31,31,22,,,,,,,,,,,,,529.7822204999975,529.7822204999975,530.281988999981,,,,,,,,,1,009,21,SentadoSom,2023-06-17_13h21.11.047,face_recognition_ERP_protocol,2022.2.5,59.96548387342429,
Celebs/34_Neil_Patrick_Harris_0004.jpg,non_target,3,0,3,0,0,32,32,104,,,,,,,,,,,,,530.7952583000006,530.7952583000006,531.2957131000003,,,,,,,,,1,009,21,SentadoSom,2023-06-17_13h21.11.047,face_recognition_ERP_protocol,2022.2.5,59.96548387342429,
Celebs/32_Jim_Parsons_0016.jpg,non_target,3,0,3,0,0,33,33,102,,,,,,,,,,,,,531.796245000005,531.796245000005,532.2801587999857,,,,,,,,,1,009,21,SentadoSom,2023-06-17_13h21.11.047,face_recognition_ERP_protocol,2022.2.5,59.96548387342429,
Celebs/50_Johnny_Depp_0008.jpg,non_target,3,0,3,0,0,34,34,84,,,,,,,,,,,,,532.7819462000043,532.7819462000043,533.2812334999908,,,,,,,,,1,009,21,SentadoSom,2023-06-17_13h21.11.047,face_recognition_ERP_protocol,2022.2.5,59.96548387342429,
Celebs/28_Scarlett_Johansson_0005.jpg,non_target,3,0,3,0,0,35,35,50,,,,,,,,,,,,,533.782020099985,533.782020099985,534.2822356999968,,,,,,,,,1,009,21,SentadoSom,2023-06-17_13h21.11.047,face_recognition_ERP_protocol,2022.2.5,59.96548387342429,
Celebs/45_Will_Smith_0010.jpg,non_target,3,0,3,0,0,36,36,69,,,,,,,,,,,,,534.7828968999966,534.7828968999966,535.2835477000044,,,,,,,,,1,009,21,SentadoSom,2023-06-17_13h21.11.047,face_recognition_ERP_protocol,2022.2.5,59.96548387342429,
Celebs/14_Emma_Watson_0008.jpg,non_target,3,0,3,0,0,37,37,36,,,,,,,,,,,,,535.7836442999833,535.7836442999833,536.284485399985,,,,,,,,,1,009,21,SentadoSom,2023-06-17_13h21.11.047,face_recognition_ERP_protocol,2022.2.5,59.96548387342429,
Celebs/37_Neil_Patrick_Harris_0010.jpg,non_target,3,0,3,0,0,38,38,93,,,,,,,,,,,,,536.7851710999967,536.7851710999967,537.2856444999925,,,,,,,,,1,009,21,SentadoSom,2023-06-17_13h21.11.047,face_recognition_ERP_protocol,2022.2.5,59.96548387342429,
Celebs/52_Jackie_Chan_0002.jpg,non_target,3,0,3,0,0,39,39,68,,,,,,,,,,,,,537.7861177999876,537.7861177999876,538.2867863999854,,,,,,,,,1,009,21,SentadoSom,2023-06-17_13h21.11.047,face_recognition_ERP_protocol,2022.2.5,59.96548387342429,
Celebs/22_Emma_Watson_0003.jpg,non_target,3,0,3,0,0,40,40,91,,,,,,,,,,,,,538.7888663999911,538.7888663999911,539.2918468999851,,,,,,,,,1,009,21,SentadoSom,2023-06-17_13h21.11.047,face_recognition_ERP_protocol,2022.2.5,59.96548387342429,
Celebs/42_Will_Smith_0012.jpg,non_target,3,0,3,0,0,41,41,64,,,,,,,,,,,,,539.8050390999997,539.8050390999997,540.2890793999832,,,,,,,,,1,009,21,SentadoSom,2023-06-17_13h21.11.047,face_recognition_ERP_protocol,2022.2.5,59.96548387342429,
Celebs/22_Emma_Stone_0013.jpg,non_target,3,0,3,0,0,42,42,1,,,,,,,,,,,,,540.7893798000005,540.7893798000005,541.2900834000029,,,,,,,,,1,009,21,SentadoSom,2023-06-17_13h21.11.047,face_recognition_ERP_protocol,2022.2.5,59.96548387342429,
Celebs/37_Will_Smith_0015.jpg,non_target,3,0,3,0,0,43,43,113,,,,,,,,,,,,,541.7904599999893,541.7904599999893,542.2911819999863,,,,,,,,,1,009,21,SentadoSom,2023-06-17_13h21.11.047,face_recognition_ERP_protocol,2022.2.5,59.96548387342429,
Celebs/55_Jackie_Chan_0003.jpg,non_target,3,0,3,0,0,44,44,29,,,,,,,,,,,,,542.7917986999964,542.7917986999964,543.2921922999958,,,,,,,,,1,009,21,SentadoSom,2023-06-17_13h21.11.047,face_recognition_ERP_protocol,2022.2.5,59.96548387342429,
Celebs/49_Johnny_Depp_0013.jpg,non_target,3,0,3,0,0,45,45,33,,,,,,,,,,,,,543.7928089000052,543.7928089000052,544.2933070999861,,,,,,,,,1,009,21,SentadoSom,2023-06-17_13h21.11.047,face_recognition_ERP_protocol,2022.2.5,59.96548387342429,
Celebs/23_Emma_Stone_0014.jpg,non_target,3,0,3,0,0,46,46,12,,,,,,,,,,,,,544.7940826999838,544.7940826999838,545.2943538999825,,,,,,,,,1,009,21,SentadoSom,2023-06-17_13h21.11.047,face_recognition_ERP_protocol,2022.2.5,59.96548387342429,
Celebs/23_Daniel_Radcliffe_0010.jpg,target,3,0,3,0,0,47,47,15,,,,,,,,,,,,,545.7953411999915,545.7953411999915,546.2955264000047,,,,,,,,,1,009,21,SentadoSom,2023-06-17_13h21.11.047,face_recognition_ERP_protocol,2022.2.5,59.96548387342429,
Celebs/16_Emma_Stone_0008.jpg,non_target,3,0,3,0,0,48,48,48,,,,,,,,,,,,,546.7975696999929,546.7975696999929,547.2838918000052,,,,,,,,,1,009,21,SentadoSom,2023-06-17_13h21.11.047,face_recognition_ERP_protocol,2022.2.5,59.96548387342429,
Celebs/20_Margot_Robbie_0004.jpg,non_target,3,0,3,0,0,49,49,116,,,,,,,,,,,,,547.7851140999992,547.7851140999992,548.2849734000047,,,,,,,,,1,009,21,SentadoSom,2023-06-17_13h21.11.047,face_recognition_ERP_protocol,2022.2.5,59.96548387342429,
Celebs/45_Will_Smith_0014.jpg,non_target,3,0,3,0,0,50,50,59,,,,,,,,,,,,,548.7862657000078,548.7862657000078,549.2860658999998,,,,,,,,,1,009,21,SentadoSom,2023-06-17_13h21.11.047,face_recognition_ERP_protocol,2022.2.5,59.96548387342429,
