image,stimulus,trial_block.thisRepN,trial_block.thisTrialN,trial_block.thisN,trial_block.thisIndex,trials.thisRepN,trials.thisTrialN,trials.thisN,trials.thisIndex,welcome_text.started,welcome_text.stopped,instructions_text.started,spacebar_key.started,spacebar_key.keys,spacebar_key.rt,eye_text.started,eye_text.stopped,text.started,text.stopped,closedEyes_text.started,beep.started,closedEyes_text.stopped,trialImage.started,polygon.started,blank_text.started,trialBlockText.started,new_trialblock.started,new_trialblock.keys,new_trialblock.rt,goodbye_text.started,participant,session,age,gender,date,expName,psychopyVersion,frameRate,
,,,,,,,,,,25.8834663000016,27.8843102000028,27.8843102000028,27.8843102000028,space,139.97012430000177,,,,,,,,,,,,,,,,1,001,21,Male,2023-04-14_12h19.57.541,face_recognition_ERP_protocol,2022.2.5,59.841432171686115,
Celebs/27_Scarlett_Johansson_0012.jpg,non_target,0,0,0,0,0,0,0,56,,,,,,,167.87085379999917,182.87053720000404,182.87053720000404,197.87042199999996,197.87042199999996,212.87013395000469,212.87011840000196,212.93670660000498,212.93670660000498,213.4040176999988,,,,,,1,001,21,Male,2023-04-14_12h19.57.541,face_recognition_ERP_protocol,2022.2.5,59.841432171686115,
Celebs/26_Scarlett_Johansson_0003.jpg,non_target,0,0,0,0,0,1,1,54,,,,,,,,,,,,,,213.90460620000522,213.90460620000522,214.38840010000422,,,,,,1,001,21,Male,2023-04-14_12h19.57.541,face_recognition_ERP_protocol,2022.2.5,59.841432171686115,
Celebs/23_Daniel_Radcliffe_0002.jpg,target,0,0,0,0,0,2,2,45,,,,,,,,,,,,,,214.88890700000047,214.88890700000047,215.38950620000105,,,,,,1,001,21,Male,2023-04-14_12h19.57.541,face_recognition_ERP_protocol,2022.2.5,59.841432171686115,
Celebs/20_Emma_Stone_0005.jpg,non_target,0,0,0,0,0,3,3,25,,,,,,,,,,,,,,215.90671080000175,215.90671080000175,216.39054350000515,,,,,,1,001,21,Male,2023-04-14_12h19.57.541,face_recognition_ERP_protocol,2022.2.5,59.841432171686115,
Celebs/36_Neil_Patrick_Harris_0010.jpg,non_target,0,0,0,0,0,4,4,71,,,,,,,,,,,,,,216.90791130000434,216.90791130000434,217.3917001000009,,,,,,1,001,21,Male,2023-04-14_12h19.57.541,face_recognition_ERP_protocol,2022.2.5,59.841432171686115,
Celebs/54_Jackie_Chan_0001.jpg,non_target,0,0,0,0,0,5,5,112,,,,,,,,,,,,,,217.9089926000015,217.9089926000015,218.3928526000018,,,,,,1,001,21,Male,2023-04-14_12h19.57.541,face_recognition_ERP_protocol,2022.2.5,59.841432171686115,
Celebs/39_Jim_Parsons_0010.jpg,non_target,0,0,0,0,0,6,6,81,,,,,,,,,,,,,,218.91009170000325,218.91009170000325,219.3939410000021,,,,,,1,001,21,Male,2023-04-14_12h19.57.541,face_recognition_ERP_protocol,2022.2.5,59.841432171686115,
Celebs/38_Jim_Parsons_0003.jpg,non_target,0,0,0,0,0,7,7,75,,,,,,,,,,,,,,219.89423499999975,219.89423499999975,220.3949988000022,,,,,,1,001,21,Male,2023-04-14_12h19.57.541,face_recognition_ERP_protocol,2022.2.5,59.841432171686115,
Celebs/23_Daniel_Radcliffe_0010.jpg,target,0,0,0,0,0,8,8,46,,,,,,,,,,,,,,220.91227900000376,220.91227900000376,221.39608520000183,,,,,,1,001,21,Male,2023-04-14_12h19.57.541,face_recognition_ERP_protocol,2022.2.5,59.841432171686115,
Celebs/18_Daniel_Radcliffe_0007.jpg,target,0,0,0,0,0,9,9,18,,,,,,,,,,,,,,221.9133626000039,221.9133626000039,222.39720490000036,,,,,,1,001,21,Male,2023-04-14_12h19.57.541,face_recognition_ERP_protocol,2022.2.5,59.841432171686115,
Celebs/34_Neil_Patrick_Harris_0004.jpg,non_target,0,0,0,0,0,10,10,66,,,,,,,,,,,,,,222.9144207999998,222.9144207999998,223.39827589999913,,,,,,1,001,21,Male,2023-04-14_12h19.57.541,face_recognition_ERP_protocol,2022.2.5,59.841432171686115,
Celebs/14_Emma_Watson_0013.jpg,non_target,0,0,0,0,0,11,11,3,,,,,,,,,,,,,,223.9155466000011,223.9155466000011,224.39943330000096,,,,,,1,001,21,Male,2023-04-14_12h19.57.541,face_recognition_ERP_protocol,2022.2.5,59.841432171686115,
Celebs/37_Neil_Patrick_Harris_0014.jpg,non_target,0,0,0,0,0,12,12,73,,,,,,,,,,,,,,224.91657780000241,224.91657780000241,225.40061490000517,,,,,,1,001,21,Male,2023-04-14_12h19.57.541,face_recognition_ERP_protocol,2022.2.5,59.841432171686115,
Celebs/17_Margot_Robbie_0012.jpg,non_target,0,0,0,0,0,13,13,15,,,,,,,,,,,,,,225.9177806000007,225.9177806000007,226.40157550000004,,,,,,1,001,21,Male,2023-04-14_12h19.57.541,face_recognition_ERP_protocol,2022.2.5,59.841432171686115,
Celebs/45_Johnny_Depp_0003.jpg,non_target,0,0,0,0,0,14,14,94,,,,,,,,,,,,,,226.91885300000285,226.91885300000285,227.4026862000028,,,,,,1,001,21,Male,2023-04-14_12h19.57.541,face_recognition_ERP_protocol,2022.2.5,59.841432171686115,
Celebs/48_Johnny_Depp_0003.jpg,non_target,0,0,0,0,0,15,15,101,,,,,,,,,,,,,,227.9198891000051,227.9198891000051,228.40374370000063,,,,,,1,001,21,Male,2023-04-14_12h19.57.541,face_recognition_ERP_protocol,2022.2.5,59.841432171686115,
Celebs/20_Margot_Robbie_0006.jpg,non_target,0,0,0,0,0,16,16,28,,,,,,,,,,,,,,228.90413190000254,228.90413190000254,229.38827940000192,,,,,,1,001,21,Male,2023-04-14_12h19.57.541,face_recognition_ERP_protocol,2022.2.5,59.841432171686115,
Celebs/35_Neil_Patrick_Harris_0009.jpg,non_target,0,0,0,0,0,17,17,68,,,,,,,,,,,,,,229.90553600000567,229.90553600000567,230.38934220000374,,,,,,1,001,21,Male,2023-04-14_12h19.57.541,face_recognition_ERP_protocol,2022.2.5,59.841432171686115,
Celebs/23_Emma_Stone_0014.jpg,non_target,0,0,0,0,0,18,18,48,,,,,,,,,,,,,,230.90660310000385,230.90660310000385,231.3904113000026,,,,,,1,001,21,Male,2023-04-14_12h19.57.541,face_recognition_ERP_protocol,2022.2.5,59.841432171686115,
Celebs/50_Johnny_Depp_0004.jpg,non_target,0,0,0,0,0,19,19,106,,,,,,,,,,,,,,231.89075720000255,231.89075720000255,232.3914886000057,,,,,,1,001,21,Male,2023-04-14_12h19.57.541,face_recognition_ERP_protocol,2022.2.5,59.841432171686115,
Celebs/36_Neil_Patrick_Harris_0007.jpg,non_target,0,0,0,0,0,20,20,70,,,,,,,,,,,,,,232.90873239999928,232.90873239999928,233.3926025000037,,,,,,1,001,21,Male,2023-04-14_12h19.57.541,face_recognition_ERP_protocol,2022.2.5,59.841432171686115,
Celebs/44_Will_Smith_0006.jpg,non_target,0,0,0,0,0,21,21,91,,,,,,,,,,,,,,233.89291539999977,233.89291539999977,234.39376110000012,,,,,,1,001,21,Male,2023-04-14_12h19.57.541,face_recognition_ERP_protocol,2022.2.5,59.841432171686115,
Celebs/21_Scarlett_Johansson_0007.jpg,non_target,0,0,0,0,0,22,22,38,,,,,,,,,,,,,,234.9108894000019,234.9108894000019,235.39481700000033,,,,,,1,001,21,Male,2023-04-14_12h19.57.541,face_recognition_ERP_protocol,2022.2.5,59.841432171686115,
Celebs/17_Margot_Robbie_0014.jpg,non_target,0,0,0,0,0,23,23,16,,,,,,,,,,,,,,235.8952242000014,235.8952242000014,236.3959501999998,,,,,,1,001,21,Male,2023-04-14_12h19.57.541,face_recognition_ERP_protocol,2022.2.5,59.841432171686115,
Celebs/14_Emma_Watson_0005.jpg,non_target,0,0,0,0,0,24,24,1,,,,,,,,,,,,,,236.91305970000394,236.91305970000394,237.396997200005,,,,,,1,001,21,Male,2023-04-14_12h19.57.541,face_recognition_ERP_protocol,2022.2.5,59.841432171686115,
Celebs/57_Jackie_Chan_0008.jpg,non_target,0,0,0,0,0,25,25,117,,,,,,,,,,,,,,237.91415699999925,237.91415699999925,238.39806360000512,,,,,,1,001,21,Male,2023-04-14_12h19.57.541,face_recognition_ERP_protocol,2022.2.5,59.841432171686115,
Celebs/50_Jackie_Chan_0014.jpg,non_target,0,0,0,0,0,26,26,105,,,,,,,,,,,,,,238.91532160000497,238.91532160000497,239.39911230000143,,,,,,1,001,21,Male,2023-04-14_12h19.57.541,face_recognition_ERP_protocol,2022.2.5,59.841432171686115,
Celebs/21_Emma_Stone_0002.jpg,non_target,0,0,0,0,0,27,27,34,,,,,,,,,,,,,,239.89961900000344,239.89961900000344,240.40030020000268,,,,,,1,001,21,Male,2023-04-14_12h19.57.541,face_recognition_ERP_protocol,2022.2.5,59.841432171686115,
Celebs/17_Daniel_Radcliffe_0007.jpg,target,0,0,0,0,0,28,28,12,,,,,,,,,,,,,,240.9174428000042,240.9174428000042,241.4013894000018,,,,,,1,001,21,Male,2023-04-14_12h19.57.541,face_recognition_ERP_protocol,2022.2.5,59.841432171686115,
Celebs/22_Emma_Watson_0003.jpg,non_target,0,0,0,0,0,29,29,41,,,,,,,,,,,,,,241.91854109999986,241.91854109999986,242.40262830000574,,,,,,1,001,21,Male,2023-04-14_12h19.57.541,face_recognition_ERP_protocol,2022.2.5,59.841432171686115,
Celebs/44_Will_Smith_0007.jpg,non_target,0,0,0,0,0,30,30,92,,,,,,,,,,,,,,242.90358350000315,242.90358350000315,243.40354680000019,,,,,,1,001,21,Male,2023-04-14_12h19.57.541,face_recognition_ERP_protocol,2022.2.5,59.841432171686115,
Celebs/54_Jackie_Chan_0014.jpg,non_target,0,0,0,0,0,31,31,113,,,,,,,,,,,,,,243.90406269999949,243.90406269999949,244.38794770000095,,,,,,1,001,21,Male,2023-04-14_12h19.57.541,face_recognition_ERP_protocol,2022.2.5,59.841432171686115,
Celebs/43_Will_Smith_0010.jpg,non_target,0,0,0,0,0,32,32,90,,,,,,,,,,,,,,244.90499740000087,244.90499740000087,245.38903230000142,,,,,,1,001,21,Male,2023-04-14_12h19.57.541,face_recognition_ERP_protocol,2022.2.5,59.841432171686115,
Celebs/40_Jim_Parsons_0015.jpg,non_target,0,0,0,0,0,33,33,85,,,,,,,,,,,,,,245.90630890000466,245.90630890000466,246.39024960000097,,,,,,1,001,21,Male,2023-04-14_12h19.57.541,face_recognition_ERP_protocol,2022.2.5,59.841432171686115,
Celebs/47_Johnny_Depp_0004.jpg,non_target,0,0,0,0,0,34,34,98,,,,,,,,,,,,,,246.90742350000073,246.90742350000073,247.39119040000514,,,,,,1,001,21,Male,2023-04-14_12h19.57.541,face_recognition_ERP_protocol,2022.2.5,59.841432171686115,
Celebs/25_Scarlett_Johansson_0010.jpg,non_target,0,0,0,0,0,35,35,53,,,,,,,,,,,,,,247.90856370000256,247.90856370000256,248.39242370000284,,,,,,1,001,21,Male,2023-04-14_12h19.57.541,face_recognition_ERP_protocol,2022.2.5,59.841432171686115,
Celebs/52_Jackie_Chan_0002.jpg,non_target,0,0,0,0,0,36,36,111,,,,,,,,,,,,,,248.90959809999913,248.90959809999913,249.39344430000347,,,,,,1,001,21,Male,2023-04-14_12h19.57.541,face_recognition_ERP_protocol,2022.2.5,59.841432171686115,
Celebs/32_Jim_Parsons_0016.jpg,non_target,0,0,0,0,0,37,37,62,,,,,,,,,,,,,,249.91063500000018,249.91063500000018,250.39452330000495,,,,,,1,001,21,Male,2023-04-14_12h19.57.541,face_recognition_ERP_protocol,2022.2.5,59.841432171686115,
Celebs/24_Scarlett_Johansson_0011.jpg,non_target,0,0,0,0,0,38,38,52,,,,,,,,,,,,,,250.91182180000033,250.91182180000033,251.3955946999995,,,,,,1,001,21,Male,2023-04-14_12h19.57.541,face_recognition_ERP_protocol,2022.2.5,59.841432171686115,
Celebs/39_Neil_Patrick_Harris_0010.jpg,non_target,0,0,0,0,0,39,39,83,,,,,,,,,,,,,,251.8962965000028,251.8962965000028,252.39675290000014,,,,,,1,001,21,Male,2023-04-14_12h19.57.541,face_recognition_ERP_protocol,2022.2.5,59.841432171686115,
Celebs/21_Margot_Robbie_0003.jpg,non_target,0,0,0,0,0,40,40,37,,,,,,,,,,,,,,252.91392949999863,252.91392949999863,253.39780040000187,,,,,,1,001,21,Male,2023-04-14_12h19.57.541,face_recognition_ERP_protocol,2022.2.5,59.841432171686115,
Celebs/49_Johnny_Depp_0013.jpg,non_target,0,0,0,0,0,41,41,103,,,,,,,,,,,,,,253.91504170000553,253.91504170000553,254.3989120000042,,,,,,1,001,21,Male,2023-04-14_12h19.57.541,face_recognition_ERP_protocol,2022.2.5,59.841432171686115,
Celebs/21_Emma_Stone_0003.jpg,non_target,0,0,0,0,0,42,42,35,,,,,,,,,,,,,,254.89927460000035,254.89927460000035,255.40011300000333,,,,,,1,001,21,Male,2023-04-14_12h19.57.541,face_recognition_ERP_protocol,2022.2.5,59.841432171686115,
Celebs/16_Emma_Stone_0012.jpg,non_target,0,0,0,0,0,43,43,9,,,,,,,,,,,,,,255.9173069000026,255.9173069000026,256.4011182000031,,,,,,1,001,21,Male,2023-04-14_12h19.57.541,face_recognition_ERP_protocol,2022.2.5,59.841432171686115,
Celebs/21_Daniel_Radcliffe_0008.jpg,target,0,0,0,0,0,44,44,31,,,,,,,,,,,,,,256.9015289000017,256.9015289000017,257.40225900000223,,,,,,1,001,21,Male,2023-04-14_12h19.57.541,face_recognition_ERP_protocol,2022.2.5,59.841432171686115,
Celebs/14_Emma_Watson_0008.jpg,non_target,0,0,0,0,0,45,45,2,,,,,,,,,,,,,,257.91942160000326,257.91942160000326,258.4033828000029,,,,,,1,001,21,Male,2023-04-14_12h19.57.541,face_recognition_ERP_protocol,2022.2.5,59.841432171686115,
Celebs/43_Will_Smith_0007.jpg,non_target,0,0,0,0,0,46,46,89,,,,,,,,,,,,,,258.92055999999866,258.92055999999866,259.4044064000045,,,,,,1,001,21,Male,2023-04-14_12h19.57.541,face_recognition_ERP_protocol,2022.2.5,59.841432171686115,
Celebs/39_Jim_Parsons_0008.jpg,non_target,0,0,0,0,0,47,47,80,,,,,,,,,,,,,,259.9049191000013,259.9049191000013,260.3888708000013,,,,,,1,001,21,Male,2023-04-14_12h19.57.541,face_recognition_ERP_protocol,2022.2.5,59.841432171686115,
Celebs/18_Daniel_Radcliffe_0008.jpg,target,0,0,0,0,0,48,48,19,,,,,,,,,,,,,,260.8927137999999,260.8927137999999,261.3901446000018,,,,,,1,001,21,Male,2023-04-14_12h19.57.541,face_recognition_ERP_protocol,2022.2.5,59.841432171686115,
Celebs/19_Margot_Robbie_0001.jpg,non_target,0,0,0,0,0,49,49,23,,,,,,,,,,,,,,261.8906715000048,261.8906715000048,262.39127340000414,,,,,,1,001,21,Male,2023-04-14_12h19.57.541,face_recognition_ERP_protocol,2022.2.5,59.841432171686115,
Celebs/20_Emma_Watson_0007.jpg,non_target,0,0,0,0,0,50,50,26,,,,,,,,,,,,,,262.9082395000005,262.9082395000005,263.3920606000029,,,,,,1,001,21,Male,2023-04-14_12h19.57.541,face_recognition_ERP_protocol,2022.2.5,59.841432171686115,
Celebs/43_Will_Smith_0006.jpg,non_target,0,0,0,0,0,51,51,88,,,,,,,,,,,,,,263.909467700003,263.909467700003,264.3932796000008,,,,,,1,001,21,Male,2023-04-14_12h19.57.541,face_recognition_ERP_protocol,2022.2.5,59.841432171686115,
Celebs/57_Jackie_Chan_0010.jpg,non_target,0,0,0,0,0,52,52,118,,,,,,,,,,,,,,264.8965379000001,264.8965379000001,265.3944200000042,,,,,,1,001,21,Male,2023-04-14_12h19.57.541,face_recognition_ERP_protocol,2022.2.5,59.841432171686115,
Celebs/40_Jim_Parsons_0004.jpg,non_target,0,0,0,0,0,53,53,84,,,,,,,,,,,,,,265.894810400001,265.894810400001,266.395540000005,,,,,,1,001,21,Male,2023-04-14_12h19.57.541,face_recognition_ERP_protocol,2022.2.5,59.841432171686115,
Celebs/15_Margot_Robbie_0005.jpg,non_target,0,0,0,0,0,54,54,5,,,,,,,,,,,,,,266.895881299999,266.895881299999,267.3966661000013,,,,,,1,001,21,Male,2023-04-14_12h19.57.541,face_recognition_ERP_protocol,2022.2.5,59.841432171686115,
Celebs/23_Daniel_Radcliffe_0019.jpg,target,0,0,0,0,0,55,55,47,,,,,,,,,,,,,,267.9136986000012,267.9136986000012,268.3976384999987,,,,,,1,001,21,Male,2023-04-14_12h19.57.541,face_recognition_ERP_protocol,2022.2.5,59.841432171686115,
Celebs/16_Emma_Stone_0008.jpg,non_target,0,0,0,0,0,56,56,7,,,,,,,,,,,,,,268.9148339000021,268.9148339000021,269.3986666000055,,,,,,1,001,21,Male,2023-04-14_12h19.57.541,face_recognition_ERP_protocol,2022.2.5,59.841432171686115,
Celebs/24_Emma_Stone_0015.jpg,non_target,0,0,0,0,0,57,57,50,,,,,,,,,,,,,,269.89901850000024,269.89901850000024,270.39991540000483,,,,,,1,001,21,Male,2023-04-14_12h19.57.541,face_recognition_ERP_protocol,2022.2.5,59.841432171686115,
Celebs/50_Johnny_Depp_0010.jpg,non_target,0,0,0,0,0,58,58,108,,,,,,,,,,,,,,270.91700230000424,270.91700230000424,271.40096630000335,,,,,,1,001,21,Male,2023-04-14_12h19.57.541,face_recognition_ERP_protocol,2022.2.5,59.841432171686115,
Celebs/21_Daniel_Radcliffe_0012.jpg,target,0,0,0,0,0,59,59,33,,,,,,,,,,,,,,271.9181052000058,271.9181052000058,272.4020520000049,,,,,,1,001,21,Male,2023-04-14_12h19.57.541,face_recognition_ERP_protocol,2022.2.5,59.841432171686115,
Celebs/32_Jim_Parsons_0010.jpg,non_target,0,0,0,0,0,60,60,61,,,,,,,,,,,,,,272.91922770000383,272.91922770000383,273.40300160000334,,,,,,1,001,21,Male,2023-04-14_12h19.57.541,face_recognition_ERP_protocol,2022.2.5,59.841432171686115,
Celebs/33_Neil_Patrick_Harris_0011.jpg,non_target,0,0,0,0,0,61,61,65,,,,,,,,,,,,,,273.9035937000008,273.9035937000008,274.404125400004,,,,,,1,001,21,Male,2023-04-14_12h19.57.541,face_recognition_ERP_protocol,2022.2.5,59.841432171686115,
Celebs/16_Emma_Stone_0014.jpg,non_target,0,0,0,0,0,62,62,10,,,,,,,,,,,,,,274.9046929000033,274.9046929000033,275.38853600000584,,,,,,1,001,21,Male,2023-04-14_12h19.57.541,face_recognition_ERP_protocol,2022.2.5,59.841432171686115,
Celebs/17_Margot_Robbie_0006.jpg,non_target,0,0,0,0,0,63,63,14,,,,,,,,,,,,,,275.9057949000053,275.9057949000053,276.38961550000386,,,,,,1,001,21,Male,2023-04-14_12h19.57.541,face_recognition_ERP_protocol,2022.2.5,59.841432171686115,
Celebs/38_Neil_Patrick_Harris_0006.jpg,non_target,0,0,0,0,0,64,64,76,,,,,,,,,,,,,,276.90689840000414,276.90689840000414,277.3907313000018,,,,,,1,001,21,Male,2023-04-14_12h19.57.541,face_recognition_ERP_protocol,2022.2.5,59.841432171686115,
Celebs/55_Jackie_Chan_0015.jpg,non_target,0,0,0,0,0,65,65,116,,,,,,,,,,,,,,277.89127030000236,277.89127030000236,278.3918666000027,,,,,,1,001,21,Male,2023-04-14_12h19.57.541,face_recognition_ERP_protocol,2022.2.5,59.841432171686115,
Celebs/19_Margot_Robbie_0004.jpg,non_target,0,0,0,0,0,66,66,24,,,,,,,,,,,,,,278.9090920000017,278.9090920000017,279.3929769000024,,,,,,1,001,21,Male,2023-04-14_12h19.57.541,face_recognition_ERP_protocol,2022.2.5,59.841432171686115,
Celebs/40_Will_Smith_0012.jpg,non_target,0,0,0,0,0,67,67,86,,,,,,,,,,,,,,279.89350540000305,279.89350540000305,280.39404690000083,,,,,,1,001,21,Male,2023-04-14_12h19.57.541,face_recognition_ERP_protocol,2022.2.5,59.841432171686115,
Celebs/18_Daniel_Radcliffe_0002.jpg,target,0,0,0,0,0,68,68,17,,,,,,,,,,,,,,280.9112834000043,280.9112834000043,281.3951548000041,,,,,,1,001,21,Male,2023-04-14_12h19.57.541,face_recognition_ERP_protocol,2022.2.5,59.841432171686115,
Celebs/37_Neil_Patrick_Harris_0010.jpg,non_target,0,0,0,0,0,69,69,72,,,,,,,,,,,,,,281.9123707000035,281.9123707000035,282.39625309999974,,,,,,1,001,21,Male,2023-04-14_12h19.57.541,face_recognition_ERP_protocol,2022.2.5,59.841432171686115,
Celebs/26_Scarlett_Johansson_0008.jpg,non_target,0,0,0,0,0,70,70,55,,,,,,,,,,,,,,282.9134506000046,282.9134506000046,283.3974359000058,,,,,,1,001,21,Male,2023-04-14_12h19.57.541,face_recognition_ERP_protocol,2022.2.5,59.841432171686115,
Celebs/55_Jackie_Chan_0003.jpg,non_target,0,0,0,0,0,71,71,114,,,,,,,,,,,,,,283.9145400000052,283.9145400000052,284.3983828000055,,,,,,1,001,21,Male,2023-04-14_12h19.57.541,face_recognition_ERP_protocol,2022.2.5,59.841432171686115,
Celebs/22_Emma_Watson_0001.jpg,non_target,0,0,0,0,0,72,72,40,,,,,,,,,,,,,,284.9009057000003,284.9009057000003,285.3997524000006,,,,,,1,001,21,Male,2023-04-14_12h19.57.541,face_recognition_ERP_protocol,2022.2.5,59.841432171686115,
Celebs/18_Emma_Watson_0004.jpg,non_target,0,0,0,0,0,73,73,21,,,,,,,,,,,,,,285.91677250000066,285.91677250000066,286.40072320000036,,,,,,1,001,21,Male,2023-04-14_12h19.57.541,face_recognition_ERP_protocol,2022.2.5,59.841432171686115,
Celebs/47_Johnny_Depp_0003.jpg,non_target,0,0,0,0,0,74,74,97,,,,,,,,,,,,,,286.90132599999924,286.90132599999924,287.4017893000055,,,,,,1,001,21,Male,2023-04-14_12h19.57.541,face_recognition_ERP_protocol,2022.2.5,59.841432171686115,
Celebs/21_Daniel_Radcliffe_0002.jpg,target,0,0,0,0,0,75,75,30,,,,,,,,,,,,,,287.9190299000038,287.9190299000038,288.40281759999925,,,,,,1,001,21,Male,2023-04-14_12h19.57.541,face_recognition_ERP_protocol,2022.2.5,59.841432171686115,
Celebs/16_Emma_Stone_0010.jpg,non_target,0,0,0,0,0,76,76,8,,,,,,,,,,,,,,288.92004720000114,288.92004720000114,289.4039086000048,,,,,,1,001,21,Male,2023-04-14_12h19.57.541,face_recognition_ERP_protocol,2022.2.5,59.841432171686115,
Celebs/51_Jackie_Chan_0006.jpg,non_target,0,0,0,0,0,77,77,110,,,,,,,,,,,,,,289.9211310000028,289.9211310000028,290.3884340000004,,,,,,1,001,21,Male,2023-04-14_12h19.57.541,face_recognition_ERP_protocol,2022.2.5,59.841432171686115,
Celebs/31_Neil_Patrick_Harris_0008.jpg,non_target,0,0,0,0,0,78,78,60,,,,,,,,,,,,,,290.90559570000187,290.90559570000187,291.38942430000316,,,,,,1,001,21,Male,2023-04-14_12h19.57.541,face_recognition_ERP_protocol,2022.2.5,59.841432171686115,
Celebs/44_Will_Smith_0015.jpg,non_target,0,0,0,0,0,79,79,93,,,,,,,,,,,,,,291.8899601000012,291.8899601000012,292.3905204000039,,,,,,1,001,21,Male,2023-04-14_12h19.57.541,face_recognition_ERP_protocol,2022.2.5,59.841432171686115,
Celebs/29_Scarlett_Johansson_0016.jpg,non_target,0,0,0,0,0,80,80,59,,,,,,,,,,,,,,292.90778560000035,292.90778560000035,293.39164059999894,,,,,,1,001,21,Male,2023-04-14_12h19.57.541,face_recognition_ERP_protocol,2022.2.5,59.841432171686115,
Celebs/50_Johnny_Depp_0018.jpg,non_target,0,0,0,0,0,81,81,109,,,,,,,,,,,,,,293.9088703000016,293.9088703000016,294.3927595999994,,,,,,1,001,21,Male,2023-04-14_12h19.57.541,face_recognition_ERP_protocol,2022.2.5,59.841432171686115,
Celebs/22_Margot_Robbie_0010.jpg,non_target,0,0,0,0,0,82,82,43,,,,,,,,,,,,,,294.9099776000003,294.9099776000003,295.3938182999991,,,,,,1,001,21,Male,2023-04-14_12h19.57.541,face_recognition_ERP_protocol,2022.2.5,59.841432171686115,
Celebs/17_Emma_Watson_0006.jpg,non_target,0,0,0,0,0,83,83,13,,,,,,,,,,,,,,295.91109549999965,295.91109549999965,296.39489100000355,,,,,,1,001,21,Male,2023-04-14_12h19.57.541,face_recognition_ERP_protocol,2022.2.5,59.841432171686115,
Celebs/50_Johnny_Depp_0008.jpg,non_target,0,0,0,0,0,84,84,107,,,,,,,,,,,,,,296.9121349000052,296.9121349000052,297.39601219999895,,,,,,1,001,21,Male,2023-04-14_12h19.57.541,face_recognition_ERP_protocol,2022.2.5,59.841432171686115,
Celebs/29_Scarlett_Johansson_0010.jpg,non_target,0,0,0,0,0,85,85,58,,,,,,,,,,,,,,297.9132721999995,297.9132721999995,298.3970894000013,,,,,,1,001,21,Male,2023-04-14_12h19.57.541,face_recognition_ERP_protocol,2022.2.5,59.841432171686115,
Celebs/38_Will_Smith_0013.jpg,non_target,0,0,0,0,0,86,86,77,,,,,,,,,,,,,,298.90024500000436,298.90024500000436,299.39839460000076,,,,,,1,001,21,Male,2023-04-14_12h19.57.541,face_recognition_ERP_protocol,2022.2.5,59.841432171686115,
Celebs/14_Emma_Watson_0004.jpg,non_target,0,0,0,0,0,87,87,0,,,,,,,,,,,,,,299.91540910000185,299.91540910000185,300.3992966000005,,,,,,1,001,21,Male,2023-04-14_12h19.57.541,face_recognition_ERP_protocol,2022.2.5,59.841432171686115,
Celebs/39_Neil_Patrick_Harris_0001.jpg,non_target,0,0,0,0,0,88,88,82,,,,,,,,,,,,,,300.9164702000053,300.9164702000053,301.40033750000293,,,,,,1,001,21,Male,2023-04-14_12h19.57.541,face_recognition_ERP_protocol,2022.2.5,59.841432171686115,
Celebs/33_Jim_Parsons_0011.jpg,non_target,0,0,0,0,0,89,89,64,,,,,,,,,,,,,,301.9175819000011,301.9175819000011,302.40147660000366,,,,,,1,001,21,Male,2023-04-14_12h19.57.541,face_recognition_ERP_protocol,2022.2.5,59.841432171686115,
Celebs/24_Scarlett_Johansson_0001.jpg,non_target,0,0,0,0,0,90,90,51,,,,,,,,,,,,,,302.9018769000031,302.9018769000031,303.40257090000523,,,,,,1,001,21,Male,2023-04-14_12h19.57.541,face_recognition_ERP_protocol,2022.2.5,59.841432171686115,
Celebs/22_Emma_Stone_0013.jpg,non_target,0,0,0,0,0,91,91,39,,,,,,,,,,,,,,303.9197615000012,303.9197615000012,304.4036158000017,,,,,,1,001,21,Male,2023-04-14_12h19.57.541,face_recognition_ERP_protocol,2022.2.5,59.841432171686115,
Celebs/15_Margot_Robbie_0012.jpg,non_target,0,0,0,0,0,92,92,6,,,,,,,,,,,,,,304.9208515999999,304.9208515999999,305.3880700000009,,,,,,1,001,21,Male,2023-04-14_12h19.57.541,face_recognition_ERP_protocol,2022.2.5,59.841432171686115,
Celebs/24_Daniel_Radcliffe_0017.jpg,target,0,0,0,0,0,93,93,49,,,,,,,,,,,,,,305.90519499999937,305.90519499999937,306.3892172000051,,,,,,1,001,21,Male,2023-04-14_12h19.57.541,face_recognition_ERP_protocol,2022.2.5,59.841432171686115,
Celebs/50_Jackie_Chan_0012.jpg,non_target,0,0,0,0,0,94,94,104,,,,,,,,,,,,,,306.90632650000043,306.90632650000043,307.39024800000334,,,,,,1,001,21,Male,2023-04-14_12h19.57.541,face_recognition_ERP_protocol,2022.2.5,59.841432171686115,
Celebs/39_Jim_Parsons_0001.jpg,non_target,0,0,0,0,0,95,95,78,,,,,,,,,,,,,,307.8953607000003,307.8953607000003,308.39138020000246,,,,,,1,001,21,Male,2023-04-14_12h19.57.541,face_recognition_ERP_protocol,2022.2.5,59.841432171686115,
Celebs/28_Scarlett_Johansson_0005.jpg,non_target,0,0,0,0,0,96,96,57,,,,,,,,,,,,,,308.9086496000018,308.9086496000018,309.3925689000025,,,,,,1,001,21,Male,2023-04-14_12h19.57.541,face_recognition_ERP_protocol,2022.2.5,59.841432171686115,
Celebs/22_Scarlett_Johansson_0005.jpg,non_target,0,0,0,0,0,97,97,44,,,,,,,,,,,,,,309.893407399999,309.893407399999,310.39358809999976,,,,,,1,001,21,Male,2023-04-14_12h19.57.541,face_recognition_ERP_protocol,2022.2.5,59.841432171686115,
Celebs/18_Emma_Stone_0016.jpg,non_target,0,0,0,0,0,98,98,20,,,,,,,,,,,,,,310.91088090000267,310.91088090000267,311.39464760000556,,,,,,1,001,21,Male,2023-04-14_12h19.57.541,face_recognition_ERP_protocol,2022.2.5,59.841432171686115,
Celebs/19_Emma_Stone_0006.jpg,non_target,0,0,0,0,0,99,99,22,,,,,,,,,,,,,,311.911909800001,311.911909800001,312.3957617999986,,,,,,1,001,21,Male,2023-04-14_12h19.57.541,face_recognition_ERP_protocol,2022.2.5,59.841432171686115,
Celebs/45_Will_Smith_0014.jpg,non_target,0,0,0,0,0,100,100,96,,,,,,,,,,,,,,312.9129752000008,312.9129752000008,313.3968889000025,,,,,,1,001,21,Male,2023-04-14_12h19.57.541,face_recognition_ERP_protocol,2022.2.5,59.841432171686115,
Celebs/14_Emma_Watson_0015.jpg,non_target,0,0,0,0,0,101,101,4,,,,,,,,,,,,,,313.8973429000034,313.8973429000034,314.3980561999997,,,,,,1,001,21,Male,2023-04-14_12h19.57.541,face_recognition_ERP_protocol,2022.2.5,59.841432171686115,
Celebs/48_Johnny_Depp_0005.jpg,non_target,0,0,0,0,0,102,102,102,,,,,,,,,,,,,,314.9152632000041,314.9152632000041,315.3989991999988,,,,,,1,001,21,Male,2023-04-14_12h19.57.541,face_recognition_ERP_protocol,2022.2.5,59.841432171686115,
Celebs/37_Will_Smith_0015.jpg,non_target,0,0,0,0,0,103,103,74,,,,,,,,,,,,,,315.9163445000013,315.9163445000013,316.40011180000147,,,,,,1,001,21,Male,2023-04-14_12h19.57.541,face_recognition_ERP_protocol,2022.2.5,59.841432171686115,
Celebs/20_Margot_Robbie_0004.jpg,non_target,0,0,0,0,0,104,104,27,,,,,,,,,,,,,,316.91735619999963,316.91735619999963,317.4012745,,,,,,1,001,21,Male,2023-04-14_12h19.57.541,face_recognition_ERP_protocol,2022.2.5,59.841432171686115,
Celebs/22_Emma_Watson_0010.jpg,non_target,0,0,0,0,0,105,105,42,,,,,,,,,,,,,,317.91845370000374,317.91845370000374,318.40233530000114,,,,,,1,001,21,Male,2023-04-14_12h19.57.541,face_recognition_ERP_protocol,2022.2.5,59.841432171686115,
Celebs/45_Will_Smith_0010.jpg,non_target,0,0,0,0,0,106,106,95,,,,,,,,,,,,,,318.91966360000515,318.91966360000515,319.40339840000524,,,,,,1,001,21,Male,2023-04-14_12h19.57.541,face_recognition_ERP_protocol,2022.2.5,59.841432171686115,
Celebs/42_Will_Smith_0012.jpg,non_target,0,0,0,0,0,107,107,87,,,,,,,,,,,,,,319.9206342000034,319.9206342000034,320.3879720000041,,,,,,1,001,21,Male,2023-04-14_12h19.57.541,face_recognition_ERP_protocol,2022.2.5,59.841432171686115,
Celebs/32_Jim_Parsons_0018.jpg,non_target,0,0,0,0,0,108,108,63,,,,,,,,,,,,,,320.9050955000057,320.9050955000057,321.38899949999904,,,,,,1,001,21,Male,2023-04-14_12h19.57.541,face_recognition_ERP_protocol,2022.2.5,59.841432171686115,
Celebs/36_Jim_Parsons_0011.jpg,non_target,0,0,0,0,0,109,109,69,,,,,,,,,,,,,,321.9062868000037,321.9062868000037,322.38998960000026,,,,,,1,001,21,Male,2023-04-14_12h19.57.541,face_recognition_ERP_protocol,2022.2.5,59.841432171686115,
Celebs/47_Johnny_Depp_0009.jpg,non_target,0,0,0,0,0,110,110,99,,,,,,,,,,,,,,322.8926361000049,322.8926361000049,323.3912382000053,,,,,,1,001,21,Male,2023-04-14_12h19.57.541,face_recognition_ERP_protocol,2022.2.5,59.841432171686115,
Celebs/55_Jackie_Chan_0008.jpg,non_target,0,0,0,0,0,111,111,115,,,,,,,,,,,,,,323.9083319000056,323.9083319000056,324.3922077000025,,,,,,1,001,21,Male,2023-04-14_12h19.57.541,face_recognition_ERP_protocol,2022.2.5,59.841432171686115,
Celebs/34_Neil_Patrick_Harris_0007.jpg,non_target,0,0,0,0,0,112,112,67,,,,,,,,,,,,,,324.8926974999995,324.8926974999995,325.3933025000006,,,,,,1,001,21,Male,2023-04-14_12h19.57.541,face_recognition_ERP_protocol,2022.2.5,59.841432171686115,
Celebs/21_Daniel_Radcliffe_0009.jpg,target,0,0,0,0,0,113,113,32,,,,,,,,,,,,,,325.91056930000195,325.91056930000195,326.3944214000003,,,,,,1,001,21,Male,2023-04-14_12h19.57.541,face_recognition_ERP_protocol,2022.2.5,59.841432171686115,
Celebs/20_Scarlett_Johansson_0011.jpg,non_target,0,0,0,0,0,114,114,29,,,,,,,,,,,,,,326.9116550000035,326.9116550000035,327.39555090000067,,,,,,1,001,21,Male,2023-04-14_12h19.57.541,face_recognition_ERP_protocol,2022.2.5,59.841432171686115,
Celebs/58_Jackie_Chan_0005.jpg,non_target,0,0,0,0,0,115,115,119,,,,,,,,,,,,,,327.91273170000204,327.91273170000204,328.3966284000053,,,,,,1,001,21,Male,2023-04-14_12h19.57.541,face_recognition_ERP_protocol,2022.2.5,59.841432171686115,
Celebs/21_Emma_Watson_0004.jpg,non_target,0,0,0,0,0,116,116,36,,,,,,,,,,,,,,328.91385140000057,328.91385140000057,329.3976537999988,,,,,,1,001,21,Male,2023-04-14_12h19.57.541,face_recognition_ERP_protocol,2022.2.5,59.841432171686115,
Celebs/48_Johnny_Depp_0001.jpg,non_target,0,0,0,0,0,117,117,100,,,,,,,,,,,,,,329.9149269000045,329.9149269000045,330.39877590000106,,,,,,1,001,21,Male,2023-04-14_12h19.57.541,face_recognition_ERP_protocol,2022.2.5,59.841432171686115,
Celebs/39_Jim_Parsons_0004.jpg,non_target,0,0,0,0,0,118,118,79,,,,,,,,,,,,,,330.91602010000497,330.91602010000497,331.39990480000415,,,,,,1,001,21,Male,2023-04-14_12h19.57.541,face_recognition_ERP_protocol,2022.2.5,59.841432171686115,
Celebs/16_Margot_Robbie_0009.jpg,non_target,0,0,0,0,0,119,119,11,,,,,,,,,,,,,,331.9171086999995,331.9171086999995,332.4010530000014,,,,,,1,001,21,Male,2023-04-14_12h19.57.541,face_recognition_ERP_protocol,2022.2.5,59.841432171686115,
Celebs/22_Emma_Watson_0001.jpg,non_target,1,0,1,0,0,0,0,40,,,,,,,,,,,,,,343.83020730000135,343.83020730000135,344.2973127000005,332.9207654000056,332.9207654000056,space,10.837413399996876,,1,001,21,Male,2023-04-14_12h19.57.541,face_recognition_ERP_protocol,2022.2.5,59.841432171686115,
Celebs/33_Jim_Parsons_0011.jpg,non_target,1,0,1,0,0,1,1,64,,,,,,,,,,,,,,344.7985202999989,344.7985202999989,345.2984304000056,,,,,,1,001,21,Male,2023-04-14_12h19.57.541,face_recognition_ERP_protocol,2022.2.5,59.841432171686115,
Celebs/42_Will_Smith_0012.jpg,non_target,1,0,1,0,0,2,2,87,,,,,,,,,,,,,,345.7987584000002,345.7987584000002,346.2995274999994,,,,,,1,001,21,Male,2023-04-14_12h19.57.541,face_recognition_ERP_protocol,2022.2.5,59.841432171686115,
Celebs/21_Emma_Stone_0002.jpg,non_target,1,0,1,0,0,3,3,34,,,,,,,,,,,,,,346.8000291999997,346.8000291999997,347.30061209999985,,,,,,1,001,21,Male,2023-04-14_12h19.57.541,face_recognition_ERP_protocol,2022.2.5,59.841432171686115,
Celebs/21_Emma_Watson_0004.jpg,non_target,1,0,1,0,0,4,4,36,,,,,,,,,,,,,,347.7843054000041,347.7843054000041,348.2851088000025,,,,,,1,001,21,Male,2023-04-14_12h19.57.541,face_recognition_ERP_protocol,2022.2.5,59.841432171686115,
Celebs/44_Will_Smith_0015.jpg,non_target,1,0,1,0,0,5,5,93,,,,,,,,,,,,,,348.7856371000016,348.7856371000016,349.2862094000011,,,,,,1,001,21,Male,2023-04-14_12h19.57.541,face_recognition_ERP_protocol,2022.2.5,59.841432171686115,
Celebs/29_Scarlett_Johansson_0016.jpg,non_target,1,0,1,0,0,6,6,59,,,,,,,,,,,,,,349.78670989999955,349.78670989999955,350.2872900000002,,,,,,1,001,21,Male,2023-04-14_12h19.57.541,face_recognition_ERP_protocol,2022.2.5,59.841432171686115,
Celebs/32_Jim_Parsons_0016.jpg,non_target,1,0,1,0,0,7,7,62,,,,,,,,,,,,,,350.787753800003,350.787753800003,351.2884140000024,,,,,,1,001,21,Male,2023-04-14_12h19.57.541,face_recognition_ERP_protocol,2022.2.5,59.841432171686115,
Celebs/58_Jackie_Chan_0005.jpg,non_target,1,0,1,0,0,8,8,119,,,,,,,,,,,,,,351.7889054000043,351.7889054000043,352.28950830000394,,,,,,1,001,21,Male,2023-04-14_12h19.57.541,face_recognition_ERP_protocol,2022.2.5,59.841432171686115,
Celebs/20_Emma_Stone_0005.jpg,non_target,1,0,1,0,0,9,9,25,,,,,,,,,,,,,,352.78992790000484,352.78992790000484,353.2905396999995,,,,,,1,001,21,Male,2023-04-14_12h19.57.541,face_recognition_ERP_protocol,2022.2.5,59.841432171686115,
Celebs/14_Emma_Watson_0008.jpg,non_target,1,0,1,0,0,10,10,2,,,,,,,,,,,,,,353.79088279999996,353.79088279999996,354.2915888999996,,,,,,1,001,21,Male,2023-04-14_12h19.57.541,face_recognition_ERP_protocol,2022.2.5,59.841432171686115,
Celebs/37_Neil_Patrick_Harris_0014.jpg,non_target,1,0,1,0,0,11,11,73,,,,,,,,,,,,,,354.79214050000155,354.79214050000155,355.2927162000051,,,,,,1,001,21,Male,2023-04-14_12h19.57.541,face_recognition_ERP_protocol,2022.2.5,59.841432171686115,
Celebs/16_Emma_Stone_0012.jpg,non_target,1,0,1,0,0,12,12,9,,,,,,,,,,,,,,355.793259500002,355.793259500002,356.2937874000054,,,,,,1,001,21,Male,2023-04-14_12h19.57.541,face_recognition_ERP_protocol,2022.2.5,59.841432171686115,
Celebs/22_Emma_Watson_0010.jpg,non_target,1,0,1,0,0,13,13,42,,,,,,,,,,,,,,356.7943374000024,356.7943374000024,357.29493889999867,,,,,,1,001,21,Male,2023-04-14_12h19.57.541,face_recognition_ERP_protocol,2022.2.5,59.841432171686115,
Celebs/23_Emma_Stone_0014.jpg,non_target,1,0,1,0,0,14,14,48,,,,,,,,,,,,,,357.7953215000016,357.7953215000016,358.29602980000345,,,,,,1,001,21,Male,2023-04-14_12h19.57.541,face_recognition_ERP_protocol,2022.2.5,59.841432171686115,
Celebs/19_Emma_Stone_0006.jpg,non_target,1,0,1,0,0,15,15,22,,,,,,,,,,,,,,358.7966047000009,358.7966047000009,359.29716430000553,,,,,,1,001,21,Male,2023-04-14_12h19.57.541,face_recognition_ERP_protocol,2022.2.5,59.841432171686115,
Celebs/23_Daniel_Radcliffe_0019.jpg,target,1,0,1,0,0,16,16,47,,,,,,,,,,,,,,359.797604899999,359.797604899999,360.29819080000016,,,,,,1,001,21,Male,2023-04-14_12h19.57.541,face_recognition_ERP_protocol,2022.2.5,59.841432171686115,
Celebs/45_Will_Smith_0014.jpg,non_target,1,0,1,0,0,17,17,96,,,,,,,,,,,,,,360.79870250000386,360.79870250000386,361.2994061999998,,,,,,1,001,21,Male,2023-04-14_12h19.57.541,face_recognition_ERP_protocol,2022.2.5,59.841432171686115,
Celebs/17_Daniel_Radcliffe_0007.jpg,target,1,0,1,0,0,18,18,12,,,,,,,,,,,,,,361.79979180000373,361.79979180000373,362.3004910000018,,,,,,1,001,21,Male,2023-04-14_12h19.57.541,face_recognition_ERP_protocol,2022.2.5,59.841432171686115,
Celebs/35_Neil_Patrick_Harris_0009.jpg,non_target,1,0,1,0,0,19,19,68,,,,,,,,,,,,,,362.78407080000034,362.78407080000034,363.28478090000135,,,,,,1,001,21,Male,2023-04-14_12h19.57.541,face_recognition_ERP_protocol,2022.2.5,59.841432171686115,
Celebs/15_Margot_Robbie_0005.jpg,non_target,1,0,1,0,0,20,20,5,,,,,,,,,,,,,,363.78537090000464,363.78537090000464,364.2858558000007,,,,,,1,001,21,Male,2023-04-14_12h19.57.541,face_recognition_ERP_protocol,2022.2.5,59.841432171686115,
Celebs/36_Jim_Parsons_0011.jpg,non_target,1,0,1,0,0,21,21,69,,,,,,,,,,,,,,364.7864273000014,364.7864273000014,365.28697020000254,,,,,,1,001,21,Male,2023-04-14_12h19.57.541,face_recognition_ERP_protocol,2022.2.5,59.841432171686115,
Celebs/18_Emma_Stone_0016.jpg,non_target,1,0,1,0,0,22,22,20,,,,,,,,,,,,,,365.7875209000049,365.7875209000049,366.2881705000036,,,,,,1,001,21,Male,2023-04-14_12h19.57.541,face_recognition_ERP_protocol,2022.2.5,59.841432171686115,
Celebs/20_Margot_Robbie_0004.jpg,non_target,1,0,1,0,0,23,23,27,,,,,,,,,,,,,,366.78845100000035,366.78845100000035,367.28913340000145,,,,,,1,001,21,Male,2023-04-14_12h19.57.541,face_recognition_ERP_protocol,2022.2.5,59.841432171686115,
Celebs/17_Margot_Robbie_0014.jpg,non_target,1,0,1,0,0,24,24,16,,,,,,,,,,,,,,367.7897598999989,367.7897598999989,368.29034250000404,,,,,,1,001,21,Male,2023-04-14_12h19.57.541,face_recognition_ERP_protocol,2022.2.5,59.841432171686115,
Celebs/47_Johnny_Depp_0004.jpg,non_target,1,0,1,0,0,25,25,98,,,,,,,,,,,,,,368.79079900000215,368.79079900000215,369.2913400000034,,,,,,1,001,21,Male,2023-04-14_12h19.57.541,face_recognition_ERP_protocol,2022.2.5,59.841432171686115,
Celebs/37_Will_Smith_0015.jpg,non_target,1,0,1,0,0,26,26,74,,,,,,,,,,,,,,369.79199260000314,369.79199260000314,370.2925574000037,,,,,,1,001,21,Male,2023-04-14_12h19.57.541,face_recognition_ERP_protocol,2022.2.5,59.841432171686115,
Celebs/20_Margot_Robbie_0006.jpg,non_target,1,0,1,0,0,27,27,28,,,,,,,,,,,,,,370.7928436000002,370.7928436000002,371.29360300000553,,,,,,1,001,21,Male,2023-04-14_12h19.57.541,face_recognition_ERP_protocol,2022.2.5,59.841432171686115,
Celebs/28_Scarlett_Johansson_0005.jpg,non_target,1,0,1,0,0,28,28,57,,,,,,,,,,,,,,371.7940882000039,371.7940882000039,372.29464500000176,,,,,,1,001,21,Male,2023-04-14_12h19.57.541,face_recognition_ERP_protocol,2022.2.5,59.841432171686115,
Celebs/39_Neil_Patrick_Harris_0010.jpg,non_target,1,0,1,0,0,29,29,83,,,,,,,,,,,,,,372.7952112000057,372.7952112000057,373.29579809999996,,,,,,1,001,21,Male,2023-04-14_12h19.57.541,face_recognition_ERP_protocol,2022.2.5,59.841432171686115,
Celebs/57_Jackie_Chan_0010.jpg,non_target,1,0,1,0,0,30,30,118,,,,,,,,,,,,,,373.7961241000012,373.7961241000012,374.2967534000054,,,,,,1,001,21,Male,2023-04-14_12h19.57.541,face_recognition_ERP_protocol,2022.2.5,59.841432171686115,
Celebs/32_Jim_Parsons_0018.jpg,non_target,1,0,1,0,0,31,31,63,,,,,,,,,,,,,,374.79718530000537,374.79718530000537,375.2979985999991,,,,,,1,001,21,Male,2023-04-14_12h19.57.541,face_recognition_ERP_protocol,2022.2.5,59.841432171686115,
Celebs/39_Jim_Parsons_0004.jpg,non_target,1,0,1,0,0,32,32,79,,,,,,,,,,,,,,375.79849549999926,375.79849549999926,376.2989929000032,,,,,,1,001,21,Male,2023-04-14_12h19.57.541,face_recognition_ERP_protocol,2022.2.5,59.841432171686115,
Celebs/43_Will_Smith_0006.jpg,non_target,1,0,1,0,0,33,33,88,,,,,,,,,,,,,,376.7996187000026,376.7996187000026,377.30017390000285,,,,,,1,001,21,Male,2023-04-14_12h19.57.541,face_recognition_ERP_protocol,2022.2.5,59.841432171686115,
Celebs/50_Johnny_Depp_0004.jpg,non_target,1,0,1,0,0,34,34,106,,,,,,,,,,,,,,377.80069370000274,377.80069370000274,378.2845782000004,,,,,,1,001,21,Male,2023-04-14_12h19.57.541,face_recognition_ERP_protocol,2022.2.5,59.841432171686115,
Celebs/21_Daniel_Radcliffe_0012.jpg,target,1,0,1,0,0,35,35,33,,,,,,,,,,,,,,378.7849203000005,378.7849203000005,379.2856432000044,,,,,,1,001,21,Male,2023-04-14_12h19.57.541,face_recognition_ERP_protocol,2022.2.5,59.841432171686115,
Celebs/55_Jackie_Chan_0015.jpg,non_target,1,0,1,0,0,36,36,116,,,,,,,,,,,,,,379.78598390000116,379.78598390000116,380.2867875000011,,,,,,1,001,21,Male,2023-04-14_12h19.57.541,face_recognition_ERP_protocol,2022.2.5,59.841432171686115,
Celebs/57_Jackie_Chan_0008.jpg,non_target,1,0,1,0,0,37,37,117,,,,,,,,,,,,,,380.78772720000416,380.78772720000416,381.2878425000017,,,,,,1,001,21,Male,2023-04-14_12h19.57.541,face_recognition_ERP_protocol,2022.2.5,59.841432171686115,
Celebs/43_Will_Smith_0010.jpg,non_target,1,0,1,0,0,38,38,90,,,,,,,,,,,,,,381.7881792000044,381.7881792000044,382.288939500002,,,,,,1,001,21,Male,2023-04-14_12h19.57.541,face_recognition_ERP_protocol,2022.2.5,59.841432171686115,
Celebs/39_Jim_Parsons_0010.jpg,non_target,1,0,1,0,0,39,39,81,,,,,,,,,,,,,,382.78929150000477,382.78929150000477,383.29014100000495,,,,,,1,001,21,Male,2023-04-14_12h19.57.541,face_recognition_ERP_protocol,2022.2.5,59.841432171686115,
Celebs/16_Emma_Stone_0008.jpg,non_target,1,0,1,0,0,40,40,7,,,,,,,,,,,,,,383.79047100000025,383.79047100000025,384.29121280000254,,,,,,1,001,21,Male,2023-04-14_12h19.57.541,face_recognition_ERP_protocol,2022.2.5,59.841432171686115,
Celebs/55_Jackie_Chan_0003.jpg,non_target,1,0,1,0,0,41,41,114,,,,,,,,,,,,,,384.7914607000057,384.7914607000057,385.2923063999988,,,,,,1,001,21,Male,2023-04-14_12h19.57.541,face_recognition_ERP_protocol,2022.2.5,59.841432171686115,
Celebs/51_Jackie_Chan_0006.jpg,non_target,1,0,1,0,0,42,42,110,,,,,,,,,,,,,,385.79278799999884,385.79278799999884,386.29337289999967,,,,,,1,001,21,Male,2023-04-14_12h19.57.541,face_recognition_ERP_protocol,2022.2.5,59.841432171686115,
Celebs/15_Margot_Robbie_0012.jpg,non_target,1,0,1,0,0,43,43,6,,,,,,,,,,,,,,386.79385059999913,386.79385059999913,387.29443940000056,,,,,,1,001,21,Male,2023-04-14_12h19.57.541,face_recognition_ERP_protocol,2022.2.5,59.841432171686115,
Celebs/14_Emma_Watson_0004.jpg,non_target,1,0,1,0,0,44,44,0,,,,,,,,,,,,,,387.79511300000013,387.79511300000013,388.29547620000085,,,,,,1,001,21,Male,2023-04-14_12h19.57.541,face_recognition_ERP_protocol,2022.2.5,59.841432171686115,
Celebs/34_Neil_Patrick_Harris_0007.jpg,non_target,1,0,1,0,0,45,45,67,,,,,,,,,,,,,,388.79606510000303,388.79606510000303,389.29661480000505,,,,,,1,001,21,Male,2023-04-14_12h19.57.541,face_recognition_ERP_protocol,2022.2.5,59.841432171686115,
Celebs/22_Emma_Watson_0003.jpg,non_target,1,0,1,0,0,46,46,41,,,,,,,,,,,,,,389.7970079000006,389.7970079000006,390.29768070000137,,,,,,1,001,21,Male,2023-04-14_12h19.57.541,face_recognition_ERP_protocol,2022.2.5,59.841432171686115,
Celebs/14_Emma_Watson_0013.jpg,non_target,1,0,1,0,0,47,47,3,,,,,,,,,,,,,,390.7983899000028,390.7983899000028,391.2987858999986,,,,,,1,001,21,Male,2023-04-14_12h19.57.541,face_recognition_ERP_protocol,2022.2.5,59.841432171686115,
Celebs/22_Emma_Stone_0013.jpg,non_target,1,0,1,0,0,48,48,39,,,,,,,,,,,,,,391.799265200003,391.799265200003,392.2998615000033,,,,,,1,001,21,Male,2023-04-14_12h19.57.541,face_recognition_ERP_protocol,2022.2.5,59.841432171686115,
Celebs/16_Margot_Robbie_0009.jpg,non_target,1,0,1,0,0,49,49,11,,,,,,,,,,,,,,392.80041260000144,392.80041260000144,393.2842524000007,,,,,,1,001,21,Male,2023-04-14_12h19.57.541,face_recognition_ERP_protocol,2022.2.5,59.841432171686115,
Celebs/40_Will_Smith_0012.jpg,non_target,1,0,1,0,0,50,50,86,,,,,,,,,,,,,,393.7848490000033,393.7848490000033,394.28537090000464,,,,,,1,001,21,Male,2023-04-14_12h19.57.541,face_recognition_ERP_protocol,2022.2.5,59.841432171686115,
Celebs/26_Scarlett_Johansson_0008.jpg,non_target,1,0,1,0,0,51,51,55,,,,,,,,,,,,,,394.78596220000327,394.78596220000327,395.28647650000494,,,,,,1,001,21,Male,2023-04-14_12h19.57.541,face_recognition_ERP_protocol,2022.2.5,59.841432171686115,
Celebs/31_Neil_Patrick_Harris_0008.jpg,non_target,1,0,1,0,0,52,52,60,,,,,,,,,,,,,,395.78685029999906,395.78685029999906,396.2875531000027,,,,,,1,001,21,Male,2023-04-14_12h19.57.541,face_recognition_ERP_protocol,2022.2.5,59.841432171686115,
Celebs/22_Scarlett_Johansson_0005.jpg,non_target,1,0,1,0,0,53,53,44,,,,,,,,,,,,,,396.78812070000276,396.78812070000276,397.2887230000051,,,,,,1,001,21,Male,2023-04-14_12h19.57.541,face_recognition_ERP_protocol,2022.2.5,59.841432171686115,
Celebs/47_Johnny_Depp_0003.jpg,non_target,1,0,1,0,0,54,54,97,,,,,,,,,,,,,,397.7892393000002,397.7892393000002,398.28979410000466,,,,,,1,001,21,Male,2023-04-14_12h19.57.541,face_recognition_ERP_protocol,2022.2.5,59.841432171686115,
Celebs/55_Jackie_Chan_0008.jpg,non_target,1,0,1,0,0,55,55,115,,,,,,,,,,,,,,398.79017150000436,398.79017150000436,399.29090780000115,,,,,,1,001,21,Male,2023-04-14_12h19.57.541,face_recognition_ERP_protocol,2022.2.5,59.841432171686115,
Celebs/39_Neil_Patrick_Harris_0001.jpg,non_target,1,0,1,0,0,56,56,82,,,,,,,,,,,,,,399.7912521000035,399.7912521000035,400.29203309999866,,,,,,1,001,21,Male,2023-04-14_12h19.57.541,face_recognition_ERP_protocol,2022.2.5,59.841432171686115,
Celebs/50_Johnny_Depp_0018.jpg,non_target,1,0,1,0,0,57,57,109,,,,,,,,,,,,,,400.79247050000413,400.79247050000413,401.29298779999954,,,,,,1,001,21,Male,2023-04-14_12h19.57.541,face_recognition_ERP_protocol,2022.2.5,59.841432171686115,
Celebs/34_Neil_Patrick_Harris_0004.jpg,non_target,1,0,1,0,0,58,58,66,,,,,,,,,,,,,,401.7934069000039,401.7934069000039,402.2941260000007,,,,,,1,001,21,Male,2023-04-14_12h19.57.541,face_recognition_ERP_protocol,2022.2.5,59.841432171686115,
Celebs/40_Jim_Parsons_0015.jpg,non_target,1,0,1,0,0,59,59,85,,,,,,,,,,,,,,402.79467310000473,402.79467310000473,403.29526550000446,,,,,,1,001,21,Male,2023-04-14_12h19.57.541,face_recognition_ERP_protocol,2022.2.5,59.841432171686115,
Celebs/48_Johnny_Depp_0001.jpg,non_target,1,0,1,0,0,60,60,100,,,,,,,,,,,,,,403.79563690000214,403.79563690000214,404.296374000005,,,,,,1,001,21,Male,2023-04-14_12h19.57.541,face_recognition_ERP_protocol,2022.2.5,59.841432171686115,
Celebs/21_Emma_Stone_0003.jpg,non_target,1,0,1,0,0,61,61,35,,,,,,,,,,,,,,404.7969643000033,404.7969643000033,405.2974777999989,,,,,,1,001,21,Male,2023-04-14_12h19.57.541,face_recognition_ERP_protocol,2022.2.5,59.841432171686115,
Celebs/44_Will_Smith_0006.jpg,non_target,1,0,1,0,0,62,62,91,,,,,,,,,,,,,,405.7980557000046,405.7980557000046,406.2985473000008,,,,,,1,001,21,Male,2023-04-14_12h19.57.541,face_recognition_ERP_protocol,2022.2.5,59.841432171686115,
Celebs/39_Jim_Parsons_0008.jpg,non_target,1,0,1,0,0,63,63,80,,,,,,,,,,,,,,406.7991217000017,406.7991217000017,407.2996837000028,,,,,,1,001,21,Male,2023-04-14_12h19.57.541,face_recognition_ERP_protocol,2022.2.5,59.841432171686115,
Celebs/20_Scarlett_Johansson_0011.jpg,non_target,1,0,1,0,0,64,64,29,,,,,,,,,,,,,,407.80021130000387,407.80021130000387,408.3007402000003,,,,,,1,001,21,Male,2023-04-14_12h19.57.541,face_recognition_ERP_protocol,2022.2.5,59.841432171686115,
Celebs/23_Daniel_Radcliffe_0010.jpg,target,1,0,1,0,0,65,65,46,,,,,,,,,,,,,,408.7845499000032,408.7845499000032,409.2852076000054,,,,,,1,001,21,Male,2023-04-14_12h19.57.541,face_recognition_ERP_protocol,2022.2.5,59.841432171686115,
Celebs/52_Jackie_Chan_0002.jpg,non_target,1,0,1,0,0,66,66,111,,,,,,,,,,,,,,409.7856940999991,409.7856940999991,410.28623560000415,,,,,,1,001,21,Male,2023-04-14_12h19.57.541,face_recognition_ERP_protocol,2022.2.5,59.841432171686115,
Celebs/32_Jim_Parsons_0010.jpg,non_target,1,0,1,0,0,67,67,61,,,,,,,,,,,,,,410.7867813000048,410.7867813000048,411.28735099999903,,,,,,1,001,21,Male,2023-04-14_12h19.57.541,face_recognition_ERP_protocol,2022.2.5,59.841432171686115,
Celebs/23_Daniel_Radcliffe_0002.jpg,target,1,0,1,0,0,68,68,45,,,,,,,,,,,,,,411.78771470000356,411.78771470000356,412.288432500005,,,,,,1,001,21,Male,2023-04-14_12h19.57.541,face_recognition_ERP_protocol,2022.2.5,59.841432171686115,
Celebs/50_Jackie_Chan_0012.jpg,non_target,1,0,1,0,0,69,69,104,,,,,,,,,,,,,,412.78874799999903,412.78874799999903,413.2894899000021,,,,,,1,001,21,Male,2023-04-14_12h19.57.541,face_recognition_ERP_protocol,2022.2.5,59.841432171686115,
Celebs/22_Margot_Robbie_0010.jpg,non_target,1,0,1,0,0,70,70,43,,,,,,,,,,,,,,413.78987380000035,413.78987380000035,414.2905998999995,,,,,,1,001,21,Male,2023-04-14_12h19.57.541,face_recognition_ERP_protocol,2022.2.5,59.841432171686115,
Celebs/27_Scarlett_Johansson_0012.jpg,non_target,1,0,1,0,0,71,71,56,,,,,,,,,,,,,,414.7911710000044,414.7911710000044,415.2917282999988,,,,,,1,001,21,Male,2023-04-14_12h19.57.541,face_recognition_ERP_protocol,2022.2.5,59.841432171686115,
Celebs/14_Emma_Watson_0005.jpg,non_target,1,0,1,0,0,72,72,1,,,,,,,,,,,,,,415.79227399999945,415.79227399999945,416.2928061999992,,,,,,1,001,21,Male,2023-04-14_12h19.57.541,face_recognition_ERP_protocol,2022.2.5,59.841432171686115,
Celebs/43_Will_Smith_0007.jpg,non_target,1,0,1,0,0,73,73,89,,,,,,,,,,,,,,416.79340429999866,416.79340429999866,417.2938914000042,,,,,,1,001,21,Male,2023-04-14_12h19.57.541,face_recognition_ERP_protocol,2022.2.5,59.841432171686115,
Celebs/19_Margot_Robbie_0004.jpg,non_target,1,0,1,0,0,74,74,24,,,,,,,,,,,,,,417.7943049000023,417.7943049000023,418.2950029000058,,,,,,1,001,21,Male,2023-04-14_12h19.57.541,face_recognition_ERP_protocol,2022.2.5,59.841432171686115,
Celebs/21_Daniel_Radcliffe_0002.jpg,target,1,0,1,0,0,75,75,30,,,,,,,,,,,,,,418.7955426000044,418.7955426000044,419.2960826000053,,,,,,1,001,21,Male,2023-04-14_12h19.57.541,face_recognition_ERP_protocol,2022.2.5,59.841432171686115,
Celebs/37_Neil_Patrick_Harris_0010.jpg,non_target,1,0,1,0,0,76,76,72,,,,,,,,,,,,,,419.7966469000021,419.7966469000021,420.2971822000036,,,,,,1,001,21,Male,2023-04-14_12h19.57.541,face_recognition_ERP_protocol,2022.2.5,59.841432171686115,
Celebs/21_Daniel_Radcliffe_0008.jpg,target,1,0,1,0,0,77,77,31,,,,,,,,,,,,,,420.7975970000043,420.7975970000043,421.2983654999989,,,,,,1,001,21,Male,2023-04-14_12h19.57.541,face_recognition_ERP_protocol,2022.2.5,59.841432171686115,
Celebs/20_Emma_Watson_0007.jpg,non_target,1,0,1,0,0,78,78,26,,,,,,,,,,,,,,421.7987474000038,421.7987474000038,422.2995385000031,,,,,,1,001,21,Male,2023-04-14_12h19.57.541,face_recognition_ERP_protocol,2022.2.5,59.841432171686115,
Celebs/24_Daniel_Radcliffe_0017.jpg,target,1,0,1,0,0,79,79,49,,,,,,,,,,,,,,422.7997026000012,422.7997026000012,423.3005004000006,,,,,,1,001,21,Male,2023-04-14_12h19.57.541,face_recognition_ERP_protocol,2022.2.5,59.841432171686115,
Celebs/26_Scarlett_Johansson_0003.jpg,non_target,1,0,1,0,0,80,80,54,,,,,,,,,,,,,,423.7843170999986,423.7843170999986,424.28489990000526,,,,,,1,001,21,Male,2023-04-14_12h19.57.541,face_recognition_ERP_protocol,2022.2.5,59.841432171686115,
Celebs/36_Neil_Patrick_Harris_0007.jpg,non_target,1,0,1,0,0,81,81,70,,,,,,,,,,,,,,424.7854002000022,424.7854002000022,425.2861520000006,,,,,,1,001,21,Male,2023-04-14_12h19.57.541,face_recognition_ERP_protocol,2022.2.5,59.841432171686115,
Celebs/45_Will_Smith_0010.jpg,non_target,1,0,1,0,0,82,82,95,,,,,,,,,,,,,,425.7863384000011,425.7863384000011,426.28721049999876,,,,,,1,001,21,Male,2023-04-14_12h19.57.541,face_recognition_ERP_protocol,2022.2.5,59.841432171686115,
Celebs/50_Johnny_Depp_0008.jpg,non_target,1,0,1,0,0,83,83,107,,,,,,,,,,,,,,426.78765060000296,426.78765060000296,427.2881586000003,,,,,,1,001,21,Male,2023-04-14_12h19.57.541,face_recognition_ERP_protocol,2022.2.5,59.841432171686115,
Celebs/39_Jim_Parsons_0001.jpg,non_target,1,0,1,0,0,84,84,78,,,,,,,,,,,,,,427.78875260000495,427.78875260000495,428.28927880000265,,,,,,1,001,21,Male,2023-04-14_12h19.57.541,face_recognition_ERP_protocol,2022.2.5,59.841432171686115,
Celebs/24_Scarlett_Johansson_0001.jpg,non_target,1,0,1,0,0,85,85,51,,,,,,,,,,,,,,428.7899075000023,428.7899075000023,429.2903978000031,,,,,,1,001,21,Male,2023-04-14_12h19.57.541,face_recognition_ERP_protocol,2022.2.5,59.841432171686115,
Celebs/21_Margot_Robbie_0003.jpg,non_target,1,0,1,0,0,86,86,37,,,,,,,,,,,,,,429.7909665000043,429.7909665000043,430.2915046000053,,,,,,1,001,21,Male,2023-04-14_12h19.57.541,face_recognition_ERP_protocol,2022.2.5,59.841432171686115,
Celebs/18_Daniel_Radcliffe_0008.jpg,target,1,0,1,0,0,87,87,19,,,,,,,,,,,,,,430.79198069999984,430.79198069999984,431.29256950000126,,,,,,1,001,21,Male,2023-04-14_12h19.57.541,face_recognition_ERP_protocol,2022.2.5,59.841432171686115,
Celebs/36_Neil_Patrick_Harris_0010.jpg,non_target,1,0,1,0,0,88,88,71,,,,,,,,,,,,,,431.7930734000038,431.7930734000038,432.29363990000274,,,,,,1,001,21,Male,2023-04-14_12h19.57.541,face_recognition_ERP_protocol,2022.2.5,59.841432171686115,
Celebs/17_Margot_Robbie_0012.jpg,non_target,1,0,1,0,0,89,89,15,,,,,,,,,,,,,,432.7942572000029,432.7942572000029,433.2948180000021,,,,,,1,001,21,Male,2023-04-14_12h19.57.541,face_recognition_ERP_protocol,2022.2.5,59.841432171686115,
Celebs/25_Scarlett_Johansson_0010.jpg,non_target,1,0,1,0,0,90,90,53,,,,,,,,,,,,,,433.7951094000018,433.7951094000018,434.29588140000124,,,,,,1,001,21,Male,2023-04-14_12h19.57.541,face_recognition_ERP_protocol,2022.2.5,59.841432171686115,
Celebs/21_Scarlett_Johansson_0007.jpg,non_target,1,0,1,0,0,91,91,38,,,,,,,,,,,,,,434.796331000005,434.796331000005,435.2969746000017,,,,,,1,001,21,Male,2023-04-14_12h19.57.541,face_recognition_ERP_protocol,2022.2.5,59.841432171686115,
Celebs/24_Emma_Stone_0015.jpg,non_target,1,0,1,0,0,92,92,50,,,,,,,,,,,,,,435.7974237000017,435.7974237000017,436.29808760000014,,,,,,1,001,21,Male,2023-04-14_12h19.57.541,face_recognition_ERP_protocol,2022.2.5,59.841432171686115,
Celebs/40_Jim_Parsons_0004.jpg,non_target,1,0,1,0,0,93,93,84,,,,,,,,,,,,,,436.7983575000035,436.7983575000035,437.2992177999986,,,,,,1,001,21,Male,2023-04-14_12h19.57.541,face_recognition_ERP_protocol,2022.2.5,59.841432171686115,
Celebs/50_Johnny_Depp_0010.jpg,non_target,1,0,1,0,0,94,94,108,,,,,,,,,,,,,,437.79965269999957,437.79965269999957,438.30029880000075,,,,,,1,001,21,Male,2023-04-14_12h19.57.541,face_recognition_ERP_protocol,2022.2.5,59.841432171686115,
Celebs/33_Neil_Patrick_Harris_0011.jpg,non_target,1,0,1,0,0,95,95,65,,,,,,,,,,,,,,438.8007798000035,438.8007798000035,439.2846501000022,,,,,,1,001,21,Male,2023-04-14_12h19.57.541,face_recognition_ERP_protocol,2022.2.5,59.841432171686115,
Celebs/17_Emma_Watson_0006.jpg,non_target,1,0,1,0,0,96,96,13,,,,,,,,,,,,,,439.7850299000056,439.7850299000056,440.2857265999992,,,,,,1,001,21,Male,2023-04-14_12h19.57.541,face_recognition_ERP_protocol,2022.2.5,59.841432171686115,
Celebs/18_Daniel_Radcliffe_0007.jpg,target,1,0,1,0,0,97,97,18,,,,,,,,,,,,,,440.78628720000415,440.78628720000415,441.2868416000056,,,,,,1,001,21,Male,2023-04-14_12h19.57.541,face_recognition_ERP_protocol,2022.2.5,59.841432171686115,
Celebs/16_Emma_Stone_0014.jpg,non_target,1,0,1,0,0,98,98,10,,,,,,,,,,,,,,441.78741309999896,441.78741309999896,442.2879627000002,,,,,,1,001,21,Male,2023-04-14_12h19.57.541,face_recognition_ERP_protocol,2022.2.5,59.841432171686115,
Celebs/45_Johnny_Depp_0003.jpg,non_target,1,0,1,0,0,99,99,94,,,,,,,,,,,,,,442.7883733999988,442.7883733999988,443.2890383000049,,,,,,1,001,21,Male,2023-04-14_12h19.57.541,face_recognition_ERP_protocol,2022.2.5,59.841432171686115,
Celebs/38_Jim_Parsons_0003.jpg,non_target,1,0,1,0,0,100,100,75,,,,,,,,,,,,,,443.789412099999,443.789412099999,444.29013020000275,,,,,,1,001,21,Male,2023-04-14_12h19.57.541,face_recognition_ERP_protocol,2022.2.5,59.841432171686115,
Celebs/50_Jackie_Chan_0014.jpg,non_target,1,0,1,0,0,101,101,105,,,,,,,,,,,,,,444.79098890000023,444.79098890000023,445.29124109999975,,,,,,1,001,21,Male,2023-04-14_12h19.57.541,face_recognition_ERP_protocol,2022.2.5,59.841432171686115,
Celebs/54_Jackie_Chan_0014.jpg,non_target,1,0,1,0,0,102,102,113,,,,,,,,,,,,,,445.79178920000413,445.79178920000413,446.2923795000024,,,,,,1,001,21,Male,2023-04-14_12h19.57.541,face_recognition_ERP_protocol,2022.2.5,59.841432171686115,
Celebs/54_Jackie_Chan_0001.jpg,non_target,1,0,1,0,0,103,103,112,,,,,,,,,,,,,,446.7928799000001,446.7928799000001,447.2934181000019,,,,,,1,001,21,Male,2023-04-14_12h19.57.541,face_recognition_ERP_protocol,2022.2.5,59.841432171686115,
Celebs/29_Scarlett_Johansson_0010.jpg,non_target,1,0,1,0,0,104,104,58,,,,,,,,,,,,,,447.7938080000022,447.7938080000022,448.2945600000021,,,,,,1,001,21,Male,2023-04-14_12h19.57.541,face_recognition_ERP_protocol,2022.2.5,59.841432171686115,
Celebs/16_Emma_Stone_0010.jpg,non_target,1,0,1,0,0,105,105,8,,,,,,,,,,,,,,448.79523110000446,448.79523110000446,449.2956159000023,,,,,,1,001,21,Male,2023-04-14_12h19.57.541,face_recognition_ERP_protocol,2022.2.5,59.841432171686115,
Celebs/24_Scarlett_Johansson_0011.jpg,non_target,1,0,1,0,0,106,106,52,,,,,,,,,,,,,,449.7962817000007,449.7962817000007,450.29674779999914,,,,,,1,001,21,Male,2023-04-14_12h19.57.541,face_recognition_ERP_protocol,2022.2.5,59.841432171686115,
Celebs/38_Neil_Patrick_Harris_0006.jpg,non_target,1,0,1,0,0,107,107,76,,,,,,,,,,,,,,450.79733169999963,450.79733169999963,451.29782479999994,,,,,,1,001,21,Male,2023-04-14_12h19.57.541,face_recognition_ERP_protocol,2022.2.5,59.841432171686115,
Celebs/18_Emma_Watson_0004.jpg,non_target,1,0,1,0,0,108,108,21,,,,,,,,,,,,,,451.79840640000475,451.79840640000475,452.29891840000346,,,,,,1,001,21,Male,2023-04-14_12h19.57.541,face_recognition_ERP_protocol,2022.2.5,59.841432171686115,
Celebs/14_Emma_Watson_0015.jpg,non_target,1,0,1,0,0,109,109,4,,,,,,,,,,,,,,452.79945399999997,452.79945399999997,453.30001460000494,,,,,,1,001,21,Male,2023-04-14_12h19.57.541,face_recognition_ERP_protocol,2022.2.5,59.841432171686115,
Celebs/48_Johnny_Depp_0003.jpg,non_target,1,0,1,0,0,110,110,101,,,,,,,,,,,,,,453.80059430000256,453.80059430000256,454.2843953000047,,,,,,1,001,21,Male,2023-04-14_12h19.57.541,face_recognition_ERP_protocol,2022.2.5,59.841432171686115,
Celebs/17_Margot_Robbie_0006.jpg,non_target,1,0,1,0,0,111,111,14,,,,,,,,,,,,,,454.78478449999966,454.78478449999966,455.28547640000033,,,,,,1,001,21,Male,2023-04-14_12h19.57.541,face_recognition_ERP_protocol,2022.2.5,59.841432171686115,
Celebs/19_Margot_Robbie_0001.jpg,non_target,1,0,1,0,0,112,112,23,,,,,,,,,,,,,,455.7859127000047,455.7859127000047,456.28657920000114,,,,,,1,001,21,Male,2023-04-14_12h19.57.541,face_recognition_ERP_protocol,2022.2.5,59.841432171686115,
Celebs/49_Johnny_Depp_0013.jpg,non_target,1,0,1,0,0,113,113,103,,,,,,,,,,,,,,456.7871354000017,456.7871354000017,457.28769920000195,,,,,,1,001,21,Male,2023-04-14_12h19.57.541,face_recognition_ERP_protocol,2022.2.5,59.841432171686115,
Celebs/21_Daniel_Radcliffe_0009.jpg,target,1,0,1,0,0,114,114,32,,,,,,,,,,,,,,457.7883542999989,457.7883542999989,458.28875130000233,,,,,,1,001,21,Male,2023-04-14_12h19.57.541,face_recognition_ERP_protocol,2022.2.5,59.841432171686115,
Celebs/38_Will_Smith_0013.jpg,non_target,1,0,1,0,0,115,115,77,,,,,,,,,,,,,,458.7894263000053,458.7894263000053,459.2898939000006,,,,,,1,001,21,Male,2023-04-14_12h19.57.541,face_recognition_ERP_protocol,2022.2.5,59.841432171686115,
Celebs/48_Johnny_Depp_0005.jpg,non_target,1,0,1,0,0,116,116,102,,,,,,,,,,,,,,459.7902719000049,459.7902719000049,460.2909637000048,,,,,,1,001,21,Male,2023-04-14_12h19.57.541,face_recognition_ERP_protocol,2022.2.5,59.841432171686115,
Celebs/47_Johnny_Depp_0009.jpg,non_target,1,0,1,0,0,117,117,99,,,,,,,,,,,,,,460.7913014000005,460.7913014000005,461.29210140000214,,,,,,1,001,21,Male,2023-04-14_12h19.57.541,face_recognition_ERP_protocol,2022.2.5,59.841432171686115,
Celebs/44_Will_Smith_0007.jpg,non_target,1,0,1,0,0,118,118,92,,,,,,,,,,,,,,461.79266750000534,461.79266750000534,462.2933317999996,,,,,,1,001,21,Male,2023-04-14_12h19.57.541,face_recognition_ERP_protocol,2022.2.5,59.841432171686115,
Celebs/18_Daniel_Radcliffe_0002.jpg,target,1,0,1,0,0,119,119,17,,,,,,,,,,,,,,462.7937215999991,462.7937215999991,463.2943136000031,,,,,,1,001,21,Male,2023-04-14_12h19.57.541,face_recognition_ERP_protocol,2022.2.5,59.841432171686115,
Celebs/24_Scarlett_Johansson_0001.jpg,non_target,2,0,2,0,0,0,0,51,,,,,,,,,,,,,,487.68921240000054,487.68921240000054,488.17146440000215,463.7948271999994,463.7948271999994,space,23.828651000003447,,1,001,21,Male,2023-04-14_12h19.57.541,face_recognition_ERP_protocol,2022.2.5,59.841432171686115,
Celebs/17_Margot_Robbie_0014.jpg,non_target,2,0,2,0,0,1,1,16,,,,,,,,,,,,,,488.67206940000324,488.67206940000324,489.1726387000017,,,,,,1,001,21,Male,2023-04-14_12h19.57.541,face_recognition_ERP_protocol,2022.2.5,59.841432171686115,
Celebs/43_Will_Smith_0007.jpg,non_target,2,0,2,0,0,2,2,89,,,,,,,,,,,,,,489.65634950000094,489.65634950000094,490.15704410000035,,,,,,1,001,21,Male,2023-04-14_12h19.57.541,face_recognition_ERP_protocol,2022.2.5,59.841432171686115,
Celebs/45_Johnny_Depp_0003.jpg,non_target,2,0,2,0,0,3,3,94,,,,,,,,,,,,,,490.6574225000004,490.6574225000004,491.15814800000226,,,,,,1,001,21,Male,2023-04-14_12h19.57.541,face_recognition_ERP_protocol,2022.2.5,59.841432171686115,
Celebs/48_Johnny_Depp_0005.jpg,non_target,2,0,2,0,0,4,4,102,,,,,,,,,,,,,,491.65845999999874,491.65845999999874,492.15925580000476,,,,,,1,001,21,Male,2023-04-14_12h19.57.541,face_recognition_ERP_protocol,2022.2.5,59.841432171686115,
Celebs/36_Jim_Parsons_0011.jpg,non_target,2,0,2,0,0,5,5,69,,,,,,,,,,,,,,492.6597346000053,492.6597346000053,493.1604041000028,,,,,,1,001,21,Male,2023-04-14_12h19.57.541,face_recognition_ERP_protocol,2022.2.5,59.841432171686115,
Celebs/54_Jackie_Chan_0014.jpg,non_target,2,0,2,0,0,6,6,113,,,,,,,,,,,,,,493.6608527999997,493.6608527999997,494.1615027000007,,,,,,1,001,21,Male,2023-04-14_12h19.57.541,face_recognition_ERP_protocol,2022.2.5,59.841432171686115,
Celebs/17_Emma_Watson_0006.jpg,non_target,2,0,2,0,0,7,7,13,,,,,,,,,,,,,,494.66182230000413,494.66182230000413,495.16256910000084,,,,,,1,001,21,Male,2023-04-14_12h19.57.541,face_recognition_ERP_protocol,2022.2.5,59.841432171686115,
Celebs/47_Johnny_Depp_0004.jpg,non_target,2,0,2,0,0,8,8,98,,,,,,,,,,,,,,495.66290709999885,495.66290709999885,496.16360140000324,,,,,,1,001,21,Male,2023-04-14_12h19.57.541,face_recognition_ERP_protocol,2022.2.5,59.841432171686115,
Celebs/34_Neil_Patrick_Harris_0004.jpg,non_target,2,0,2,0,0,9,9,66,,,,,,,,,,,,,,496.6642925000051,496.6642925000051,497.16473419999966,,,,,,1,001,21,Male,2023-04-14_12h19.57.541,face_recognition_ERP_protocol,2022.2.5,59.841432171686115,
Celebs/20_Emma_Watson_0007.jpg,non_target,2,0,2,0,0,10,10,26,,,,,,,,,,,,,,497.66517880000174,497.66517880000174,498.1658549999993,,,,,,1,001,21,Male,2023-04-14_12h19.57.541,face_recognition_ERP_protocol,2022.2.5,59.841432171686115,
Celebs/52_Jackie_Chan_0002.jpg,non_target,2,0,2,0,0,11,11,111,,,,,,,,,,,,,,498.6665367000023,498.6665367000023,499.16689930000575,,,,,,1,001,21,Male,2023-04-14_12h19.57.541,face_recognition_ERP_protocol,2022.2.5,59.841432171686115,
Celebs/18_Emma_Watson_0004.jpg,non_target,2,0,2,0,0,12,12,21,,,,,,,,,,,,,,499.6672069999986,499.6672069999986,500.1681282999998,,,,,,1,001,21,Male,2023-04-14_12h19.57.541,face_recognition_ERP_protocol,2022.2.5,59.841432171686115,
Celebs/57_Jackie_Chan_0010.jpg,non_target,2,0,2,0,0,13,13,118,,,,,,,,,,,,,,500.66833680000127,500.66833680000127,501.16912969999976,,,,,,1,001,21,Male,2023-04-14_12h19.57.541,face_recognition_ERP_protocol,2022.2.5,59.841432171686115,
Celebs/21_Daniel_Radcliffe_0009.jpg,target,2,0,2,0,0,14,14,32,,,,,,,,,,,,,,501.66941560000123,501.66941560000123,502.1702054000052,,,,,,1,001,21,Male,2023-04-14_12h19.57.541,face_recognition_ERP_protocol,2022.2.5,59.841432171686115,
Celebs/49_Johnny_Depp_0013.jpg,non_target,2,0,2,0,0,15,15,103,,,,,,,,,,,,,,502.67052479999984,502.67052479999984,503.17124239999976,,,,,,1,001,21,Male,2023-04-14_12h19.57.541,face_recognition_ERP_protocol,2022.2.5,59.841432171686115,
Celebs/57_Jackie_Chan_0008.jpg,non_target,2,0,2,0,0,16,16,117,,,,,,,,,,,,,,503.6717181999993,503.6717181999993,504.17235549999896,,,,,,1,001,21,Male,2023-04-14_12h19.57.541,face_recognition_ERP_protocol,2022.2.5,59.841432171686115,
Celebs/21_Daniel_Radcliffe_0008.jpg,target,2,0,2,0,0,17,17,31,,,,,,,,,,,,,,504.6727286000023,504.6727286000023,505.1567514999988,,,,,,1,001,21,Male,2023-04-14_12h19.57.541,face_recognition_ERP_protocol,2022.2.5,59.841432171686115,
Celebs/15_Margot_Robbie_0012.jpg,non_target,2,0,2,0,0,18,18,6,,,,,,,,,,,,,,505.6573509000009,505.6573509000009,506.15779699999985,,,,,,1,001,21,Male,2023-04-14_12h19.57.541,face_recognition_ERP_protocol,2022.2.5,59.841432171686115,
Celebs/20_Emma_Stone_0005.jpg,non_target,2,0,2,0,0,19,19,25,,,,,,,,,,,,,,506.6582783000049,506.6582783000049,507.15897699999914,,,,,,1,001,21,Male,2023-04-14_12h19.57.541,face_recognition_ERP_protocol,2022.2.5,59.841432171686115,
Celebs/21_Margot_Robbie_0003.jpg,non_target,2,0,2,0,0,20,20,37,,,,,,,,,,,,,,507.6595559000052,507.6595559000052,508.16006230000494,,,,,,1,001,21,Male,2023-04-14_12h19.57.541,face_recognition_ERP_protocol,2022.2.5,59.841432171686115,
Celebs/21_Daniel_Radcliffe_0002.jpg,target,2,0,2,0,0,21,21,30,,,,,,,,,,,,,,508.6604316000012,508.6604316000012,509.1611178000021,,,,,,1,001,21,Male,2023-04-14_12h19.57.541,face_recognition_ERP_protocol,2022.2.5,59.841432171686115,
Celebs/50_Jackie_Chan_0014.jpg,non_target,2,0,2,0,0,22,22,105,,,,,,,,,,,,,,509.66176429999905,509.66176429999905,510.1622497999997,,,,,,1,001,21,Male,2023-04-14_12h19.57.541,face_recognition_ERP_protocol,2022.2.5,59.841432171686115,
Celebs/37_Will_Smith_0015.jpg,non_target,2,0,2,0,0,23,23,74,,,,,,,,,,,,,,510.66284570000425,510.66284570000425,511.16336859999865,,,,,,1,001,21,Male,2023-04-14_12h19.57.541,face_recognition_ERP_protocol,2022.2.5,59.841432171686115,
Celebs/23_Daniel_Radcliffe_0002.jpg,target,2,0,2,0,0,24,24,45,,,,,,,,,,,,,,511.6639178000041,511.6639178000041,512.1644741000055,,,,,,1,001,21,Male,2023-04-14_12h19.57.541,face_recognition_ERP_protocol,2022.2.5,59.841432171686115,
Celebs/44_Will_Smith_0015.jpg,non_target,2,0,2,0,0,25,25,93,,,,,,,,,,,,,,512.6650178999989,512.6650178999989,513.165636400001,,,,,,1,001,21,Male,2023-04-14_12h19.57.541,face_recognition_ERP_protocol,2022.2.5,59.841432171686115,
Celebs/22_Emma_Stone_0013.jpg,non_target,2,0,2,0,0,26,26,39,,,,,,,,,,,,,,513.6659690000015,513.6659690000015,514.1666728000055,,,,,,1,001,21,Male,2023-04-14_12h19.57.541,face_recognition_ERP_protocol,2022.2.5,59.841432171686115,
Celebs/37_Neil_Patrick_Harris_0010.jpg,non_target,2,0,2,0,0,27,27,72,,,,,,,,,,,,,,514.6670049000022,514.6670049000022,515.1679339000038,,,,,,1,001,21,Male,2023-04-14_12h19.57.541,face_recognition_ERP_protocol,2022.2.5,59.841432171686115,
Celebs/20_Scarlett_Johansson_0011.jpg,non_target,2,0,2,0,0,28,28,29,,,,,,,,,,,,,,515.6686469000051,515.6686469000051,516.168918000003,,,,,,1,001,21,Male,2023-04-14_12h19.57.541,face_recognition_ERP_protocol,2022.2.5,59.841432171686115,
Celebs/34_Neil_Patrick_Harris_0007.jpg,non_target,2,0,2,0,0,29,29,67,,,,,,,,,,,,,,516.6693483999989,516.6693483999989,517.1699812000006,,,,,,1,001,21,Male,2023-04-14_12h19.57.541,face_recognition_ERP_protocol,2022.2.5,59.841432171686115,
Celebs/47_Johnny_Depp_0003.jpg,non_target,2,0,2,0,0,30,30,97,,,,,,,,,,,,,,517.6705002000017,517.6705002000017,518.1710246000002,,,,,,1,001,21,Male,2023-04-14_12h19.57.541,face_recognition_ERP_protocol,2022.2.5,59.841432171686115,
Celebs/25_Scarlett_Johansson_0010.jpg,non_target,2,0,2,0,0,31,31,53,,,,,,,,,,,,,,518.6715685000017,518.6715685000017,519.1721002000049,,,,,,1,001,21,Male,2023-04-14_12h19.57.541,face_recognition_ERP_protocol,2022.2.5,59.841432171686115,
Celebs/14_Emma_Watson_0004.jpg,non_target,2,0,2,0,0,32,32,0,,,,,,,,,,,,,,519.6726395000005,519.6726395000005,520.1565422999993,,,,,,1,001,21,Male,2023-04-14_12h19.57.541,face_recognition_ERP_protocol,2022.2.5,59.841432171686115,
Celebs/43_Will_Smith_0006.jpg,non_target,2,0,2,0,0,33,33,88,,,,,,,,,,,,,,520.6570930000016,520.6570930000016,521.1576446000036,,,,,,1,001,21,Male,2023-04-14_12h19.57.541,face_recognition_ERP_protocol,2022.2.5,59.841432171686115,
Celebs/17_Daniel_Radcliffe_0007.jpg,target,2,0,2,0,0,34,34,12,,,,,,,,,,,,,,521.6582908000055,521.6582908000055,522.1587412000008,,,,,,1,001,21,Male,2023-04-14_12h19.57.541,face_recognition_ERP_protocol,2022.2.5,59.841432171686115,
Celebs/19_Margot_Robbie_0004.jpg,non_target,2,0,2,0,0,35,35,24,,,,,,,,,,,,,,522.6592578000054,522.6592578000054,523.1598214000041,,,,,,1,001,21,Male,2023-04-14_12h19.57.541,face_recognition_ERP_protocol,2022.2.5,59.841432171686115,
Celebs/21_Emma_Stone_0003.jpg,non_target,2,0,2,0,0,36,36,35,,,,,,,,,,,,,,523.6603850000029,523.6603850000029,524.1609921000054,,,,,,1,001,21,Male,2023-04-14_12h19.57.541,face_recognition_ERP_protocol,2022.2.5,59.841432171686115,
Celebs/40_Jim_Parsons_0015.jpg,non_target,2,0,2,0,0,37,37,85,,,,,,,,,,,,,,524.661523499999,524.661523499999,525.1621550999989,,,,,,1,001,21,Male,2023-04-14_12h19.57.541,face_recognition_ERP_protocol,2022.2.5,59.841432171686115,
Celebs/21_Daniel_Radcliffe_0012.jpg,target,2,0,2,0,0,38,38,33,,,,,,,,,,,,,,525.6625509000005,525.6625509000005,526.1631097999998,,,,,,1,001,21,Male,2023-04-14_12h19.57.541,face_recognition_ERP_protocol,2022.2.5,59.841432171686115,
Celebs/32_Jim_Parsons_0016.jpg,non_target,2,0,2,0,0,39,39,62,,,,,,,,,,,,,,526.6636182000002,526.6636182000002,527.1642157000024,,,,,,1,001,21,Male,2023-04-14_12h19.57.541,face_recognition_ERP_protocol,2022.2.5,59.841432171686115,
Celebs/38_Neil_Patrick_Harris_0006.jpg,non_target,2,0,2,0,0,40,40,76,,,,,,,,,,,,,,527.6645070000013,527.6645070000013,528.1653492000041,,,,,,1,001,21,Male,2023-04-14_12h19.57.541,face_recognition_ERP_protocol,2022.2.5,59.841432171686115,
Celebs/33_Jim_Parsons_0011.jpg,non_target,2,0,2,0,0,41,41,64,,,,,,,,,,,,,,528.6659349000038,528.6659349000038,529.1664783000015,,,,,,1,001,21,Male,2023-04-14_12h19.57.541,face_recognition_ERP_protocol,2022.2.5,59.841432171686115,
Celebs/45_Will_Smith_0010.jpg,non_target,2,0,2,0,0,42,42,95,,,,,,,,,,,,,,529.6669191000037,529.6669191000037,530.1675523000013,,,,,,1,001,21,Male,2023-04-14_12h19.57.541,face_recognition_ERP_protocol,2022.2.5,59.841432171686115,
Celebs/48_Johnny_Depp_0001.jpg,non_target,2,0,2,0,0,43,43,100,,,,,,,,,,,,,,530.6680256000036,530.6680256000036,531.168634200003,,,,,,1,001,21,Male,2023-04-14_12h19.57.541,face_recognition_ERP_protocol,2022.2.5,59.841432171686115,
Celebs/54_Jackie_Chan_0001.jpg,non_target,2,0,2,0,0,44,44,112,,,,,,,,,,,,,,531.6689651000052,531.6689651000052,532.1697083000035,,,,,,1,001,21,Male,2023-04-14_12h19.57.541,face_recognition_ERP_protocol,2022.2.5,59.841432171686115,
Celebs/23_Emma_Stone_0014.jpg,non_target,2,0,2,0,0,45,45,48,,,,,,,,,,,,,,532.6699986000021,532.6699986000021,533.1708163000003,,,,,,1,001,21,Male,2023-04-14_12h19.57.541,face_recognition_ERP_protocol,2022.2.5,59.841432171686115,
Celebs/16_Margot_Robbie_0009.jpg,non_target,2,0,2,0,0,46,46,11,,,,,,,,,,,,,,533.6711536000003,533.6711536000003,534.1719330000051,,,,,,1,001,21,Male,2023-04-14_12h19.57.541,face_recognition_ERP_protocol,2022.2.5,59.841432171686115,
Celebs/14_Emma_Watson_0005.jpg,non_target,2,0,2,0,0,47,47,1,,,,,,,,,,,,,,534.6721844000058,534.6721844000058,535.1729682000005,,,,,,1,001,21,Male,2023-04-14_12h19.57.541,face_recognition_ERP_protocol,2022.2.5,59.841432171686115,
Celebs/36_Neil_Patrick_Harris_0010.jpg,non_target,2,0,2,0,0,48,48,71,,,,,,,,,,,,,,535.6568897000034,535.6568897000034,536.157523300004,,,,,,1,001,21,Male,2023-04-14_12h19.57.541,face_recognition_ERP_protocol,2022.2.5,59.841432171686115,
Celebs/50_Johnny_Depp_0010.jpg,non_target,2,0,2,0,0,49,49,108,,,,,,,,,,,,,,536.6580159000005,536.6580159000005,537.1584755000003,,,,,,1,001,21,Male,2023-04-14_12h19.57.541,face_recognition_ERP_protocol,2022.2.5,59.841432171686115,
Celebs/22_Emma_Watson_0010.jpg,non_target,2,0,2,0,0,50,50,42,,,,,,,,,,,,,,537.6590723000045,537.6590723000045,538.1595806000041,,,,,,1,001,21,Male,2023-04-14_12h19.57.541,face_recognition_ERP_protocol,2022.2.5,59.841432171686115,
Celebs/22_Emma_Watson_0001.jpg,non_target,2,0,2,0,0,51,51,40,,,,,,,,,,,,,,538.6599215000024,538.6599215000024,539.1607338000031,,,,,,1,001,21,Male,2023-04-14_12h19.57.541,face_recognition_ERP_protocol,2022.2.5,59.841432171686115,
Celebs/48_Johnny_Depp_0003.jpg,non_target,2,0,2,0,0,52,52,101,,,,,,,,,,,,,,539.6612330999997,539.6612330999997,540.1619221000001,,,,,,1,001,21,Male,2023-04-14_12h19.57.541,face_recognition_ERP_protocol,2022.2.5,59.841432171686115,
Celebs/55_Jackie_Chan_0008.jpg,non_target,2,0,2,0,0,53,53,115,,,,,,,,,,,,,,540.6621654000046,540.6621654000046,541.1629300999994,,,,,,1,001,21,Male,2023-04-14_12h19.57.541,face_recognition_ERP_protocol,2022.2.5,59.841432171686115,
Celebs/16_Emma_Stone_0010.jpg,non_target,2,0,2,0,0,54,54,8,,,,,,,,,,,,,,541.663247000004,541.663247000004,542.1640035000019,,,,,,1,001,21,Male,2023-04-14_12h19.57.541,face_recognition_ERP_protocol,2022.2.5,59.841432171686115,
Celebs/35_Neil_Patrick_Harris_0009.jpg,non_target,2,0,2,0,0,55,55,68,,,,,,,,,,,,,,542.6644946000015,542.6644946000015,543.1651038000055,,,,,,1,001,21,Male,2023-04-14_12h19.57.541,face_recognition_ERP_protocol,2022.2.5,59.841432171686115,
Celebs/36_Neil_Patrick_Harris_0007.jpg,non_target,2,0,2,0,0,56,56,70,,,,,,,,,,,,,,543.6656275999994,543.6656275999994,544.1661975000025,,,,,,1,001,21,Male,2023-04-14_12h19.57.541,face_recognition_ERP_protocol,2022.2.5,59.841432171686115,
Celebs/22_Margot_Robbie_0010.jpg,non_target,2,0,2,0,0,57,57,43,,,,,,,,,,,,,,544.6672558999999,544.6672558999999,545.1672576000055,,,,,,1,001,21,Male,2023-04-14_12h19.57.541,face_recognition_ERP_protocol,2022.2.5,59.841432171686115,
Celebs/38_Jim_Parsons_0003.jpg,non_target,2,0,2,0,0,58,58,75,,,,,,,,,,,,,,545.6678665,545.6678665,546.1684307000032,,,,,,1,001,21,Male,2023-04-14_12h19.57.541,face_recognition_ERP_protocol,2022.2.5,59.841432171686115,
Celebs/50_Johnny_Depp_0004.jpg,non_target,2,0,2,0,0,59,59,106,,,,,,,,,,,,,,546.6689796999999,546.6689796999999,547.1694773999989,,,,,,1,001,21,Male,2023-04-14_12h19.57.541,face_recognition_ERP_protocol,2022.2.5,59.841432171686115,
Celebs/15_Margot_Robbie_0005.jpg,non_target,2,0,2,0,0,60,60,5,,,,,,,,,,,,,,547.670861300001,547.670861300001,548.1705153000003,,,,,,1,001,21,Male,2023-04-14_12h19.57.541,face_recognition_ERP_protocol,2022.2.5,59.841432171686115,
Celebs/50_Johnny_Depp_0008.jpg,non_target,2,0,2,0,0,61,61,107,,,,,,,,,,,,,,548.6710920000041,548.6710920000041,549.1716270000034,,,,,,1,001,21,Male,2023-04-14_12h19.57.541,face_recognition_ERP_protocol,2022.2.5,59.841432171686115,
Celebs/39_Neil_Patrick_Harris_0010.jpg,non_target,2,0,2,0,0,62,62,83,,,,,,,,,,,,,,549.6721174000049,549.6721174000049,550.1727386000057,,,,,,1,001,21,Male,2023-04-14_12h19.57.541,face_recognition_ERP_protocol,2022.2.5,59.841432171686115,
Celebs/26_Scarlett_Johansson_0003.jpg,non_target,2,0,2,0,0,63,63,54,,,,,,,,,,,,,,550.656550300002,550.656550300002,551.1571762000021,,,,,,1,001,21,Male,2023-04-14_12h19.57.541,face_recognition_ERP_protocol,2022.2.5,59.841432171686115,
Celebs/55_Jackie_Chan_0015.jpg,non_target,2,0,2,0,0,64,64,116,,,,,,,,,,,,,,551.657452600004,551.657452600004,552.158253900001,,,,,,1,001,21,Male,2023-04-14_12h19.57.541,face_recognition_ERP_protocol,2022.2.5,59.841432171686115,
Celebs/18_Daniel_Radcliffe_0007.jpg,target,2,0,2,0,0,65,65,18,,,,,,,,,,,,,,552.6585441999996,552.6585441999996,553.1593303000045,,,,,,1,001,21,Male,2023-04-14_12h19.57.541,face_recognition_ERP_protocol,2022.2.5,59.841432171686115,
Celebs/43_Will_Smith_0010.jpg,non_target,2,0,2,0,0,66,66,90,,,,,,,,,,,,,,553.659653900002,553.659653900002,554.1605086999989,,,,,,1,001,21,Male,2023-04-14_12h19.57.541,face_recognition_ERP_protocol,2022.2.5,59.841432171686115,
Celebs/40_Will_Smith_0012.jpg,non_target,2,0,2,0,0,67,67,86,,,,,,,,,,,,,,554.6609931999992,554.6609931999992,555.1615157000051,,,,,,1,001,21,Male,2023-04-14_12h19.57.541,face_recognition_ERP_protocol,2022.2.5,59.841432171686115,
Celebs/29_Scarlett_Johansson_0016.jpg,non_target,2,0,2,0,0,68,68,59,,,,,,,,,,,,,,555.6621225000054,555.6621225000054,556.1625783999989,,,,,,1,001,21,Male,2023-04-14_12h19.57.541,face_recognition_ERP_protocol,2022.2.5,59.841432171686115,
Celebs/50_Jackie_Chan_0012.jpg,non_target,2,0,2,0,0,69,69,104,,,,,,,,,,,,,,556.6631083000029,556.6631083000029,557.1636622000005,,,,,,1,001,21,Male,2023-04-14_12h19.57.541,face_recognition_ERP_protocol,2022.2.5,59.841432171686115,
Celebs/17_Margot_Robbie_0006.jpg,non_target,2,0,2,0,0,70,70,14,,,,,,,,,,,,,,557.6641960999987,557.6641960999987,558.1647703000053,,,,,,1,001,21,Male,2023-04-14_12h19.57.541,face_recognition_ERP_protocol,2022.2.5,59.841432171686115,
Celebs/39_Jim_Parsons_0004.jpg,non_target,2,0,2,0,0,71,71,79,,,,,,,,,,,,,,558.6653332999995,558.6653332999995,559.165903000001,,,,,,1,001,21,Male,2023-04-14_12h19.57.541,face_recognition_ERP_protocol,2022.2.5,59.841432171686115,
Celebs/14_Emma_Watson_0013.jpg,non_target,2,0,2,0,0,72,72,3,,,,,,,,,,,,,,559.6662877000053,559.6662877000053,560.1671435000026,,,,,,1,001,21,Male,2023-04-14_12h19.57.541,face_recognition_ERP_protocol,2022.2.5,59.841432171686115,
Celebs/24_Emma_Stone_0015.jpg,non_target,2,0,2,0,0,73,73,50,,,,,,,,,,,,,,560.6675395999991,560.6675395999991,561.1681850000023,,,,,,1,001,21,Male,2023-04-14_12h19.57.541,face_recognition_ERP_protocol,2022.2.5,59.841432171686115,
Celebs/37_Neil_Patrick_Harris_0014.jpg,non_target,2,0,2,0,0,74,74,73,,,,,,,,,,,,,,561.6684272999992,561.6684272999992,562.169146100001,,,,,,1,001,21,Male,2023-04-14_12h19.57.541,face_recognition_ERP_protocol,2022.2.5,59.841432171686115,
Celebs/21_Emma_Watson_0004.jpg,non_target,2,0,2,0,0,75,75,36,,,,,,,,,,,,,,562.6697961000027,562.6697961000027,563.1702458,,,,,,1,001,21,Male,2023-04-14_12h19.57.541,face_recognition_ERP_protocol,2022.2.5,59.841432171686115,
Celebs/22_Emma_Watson_0003.jpg,non_target,2,0,2,0,0,76,76,41,,,,,,,,,,,,,,563.6709164999993,563.6709164999993,564.171388499999,,,,,,1,001,21,Male,2023-04-14_12h19.57.541,face_recognition_ERP_protocol,2022.2.5,59.841432171686115,
Celebs/39_Jim_Parsons_0010.jpg,non_target,2,0,2,0,0,77,77,81,,,,,,,,,,,,,,564.6717441000001,564.6717441000001,565.1724790000007,,,,,,1,001,21,Male,2023-04-14_12h19.57.541,face_recognition_ERP_protocol,2022.2.5,59.841432171686115,
Celebs/23_Daniel_Radcliffe_0010.jpg,target,2,0,2,0,0,78,78,46,,,,,,,,,,,,,,565.6562889000052,565.6562889000052,566.1568994000045,,,,,,1,001,21,Male,2023-04-14_12h19.57.541,face_recognition_ERP_protocol,2022.2.5,59.841432171686115,
Celebs/39_Jim_Parsons_0008.jpg,non_target,2,0,2,0,0,79,79,80,,,,,,,,,,,,,,566.657375499999,566.657375499999,567.1580010000034,,,,,,1,001,21,Male,2023-04-14_12h19.57.541,face_recognition_ERP_protocol,2022.2.5,59.841432171686115,
Celebs/47_Johnny_Depp_0009.jpg,non_target,2,0,2,0,0,80,80,99,,,,,,,,,,,,,,567.6585905000029,567.6585905000029,568.1590657999986,,,,,,1,001,21,Male,2023-04-14_12h19.57.541,face_recognition_ERP_protocol,2022.2.5,59.841432171686115,
Celebs/16_Emma_Stone_0014.jpg,non_target,2,0,2,0,0,81,81,10,,,,,,,,,,,,,,568.659628500005,568.659628500005,569.160220800004,,,,,,1,001,21,Male,2023-04-14_12h19.57.541,face_recognition_ERP_protocol,2022.2.5,59.841432171686115,
Celebs/16_Emma_Stone_0012.jpg,non_target,2,0,2,0,0,82,82,9,,,,,,,,,,,,,,569.660681100002,569.660681100002,570.1612453999987,,,,,,1,001,21,Male,2023-04-14_12h19.57.541,face_recognition_ERP_protocol,2022.2.5,59.841432171686115,
Celebs/51_Jackie_Chan_0006.jpg,non_target,2,0,2,0,0,83,83,110,,,,,,,,,,,,,,570.6618632000027,570.6618632000027,571.1624264000056,,,,,,1,001,21,Male,2023-04-14_12h19.57.541,face_recognition_ERP_protocol,2022.2.5,59.841432171686115,
Celebs/24_Scarlett_Johansson_0011.jpg,non_target,2,0,2,0,0,84,84,52,,,,,,,,,,,,,,571.6626677000022,571.6626677000022,572.163535300002,,,,,,1,001,21,Male,2023-04-14_12h19.57.541,face_recognition_ERP_protocol,2022.2.5,59.841432171686115,
Celebs/14_Emma_Watson_0015.jpg,non_target,2,0,2,0,0,85,85,4,,,,,,,,,,,,,,572.6639663000024,572.6639663000024,573.1645964999989,,,,,,1,001,21,Male,2023-04-14_12h19.57.541,face_recognition_ERP_protocol,2022.2.5,59.841432171686115,
Celebs/21_Scarlett_Johansson_0007.jpg,non_target,2,0,2,0,0,86,86,38,,,,,,,,,,,,,,573.6652015,573.6652015,574.1656609000056,,,,,,1,001,21,Male,2023-04-14_12h19.57.541,face_recognition_ERP_protocol,2022.2.5,59.841432171686115,
Celebs/39_Neil_Patrick_Harris_0001.jpg,non_target,2,0,2,0,0,87,87,82,,,,,,,,,,,,,,574.6663122000027,574.6663122000027,575.1667050000033,,,,,,1,001,21,Male,2023-04-14_12h19.57.541,face_recognition_ERP_protocol,2022.2.5,59.841432171686115,
Celebs/40_Jim_Parsons_0004.jpg,non_target,2,0,2,0,0,88,88,84,,,,,,,,,,,,,,575.667276799999,575.667276799999,576.1679361999995,,,,,,1,001,21,Male,2023-04-14_12h19.57.541,face_recognition_ERP_protocol,2022.2.5,59.841432171686115,
Celebs/39_Jim_Parsons_0001.jpg,non_target,2,0,2,0,0,89,89,78,,,,,,,,,,,,,,576.6682361999992,576.6682361999992,577.1689964000034,,,,,,1,001,21,Male,2023-04-14_12h19.57.541,face_recognition_ERP_protocol,2022.2.5,59.841432171686115,
Celebs/22_Scarlett_Johansson_0005.jpg,non_target,2,0,2,0,0,90,90,44,,,,,,,,,,,,,,577.6695585000052,577.6695585000052,578.1700617000024,,,,,,1,001,21,Male,2023-04-14_12h19.57.541,face_recognition_ERP_protocol,2022.2.5,59.841432171686115,
Celebs/31_Neil_Patrick_Harris_0008.jpg,non_target,2,0,2,0,0,91,91,60,,,,,,,,,,,,,,578.6705970000039,578.6705970000039,579.1711725999994,,,,,,1,001,21,Male,2023-04-14_12h19.57.541,face_recognition_ERP_protocol,2022.2.5,59.841432171686115,
Celebs/32_Jim_Parsons_0018.jpg,non_target,2,0,2,0,0,92,92,63,,,,,,,,,,,,,,579.6716813000021,579.6716813000021,580.1722571999999,,,,,,1,001,21,Male,2023-04-14_12h19.57.541,face_recognition_ERP_protocol,2022.2.5,59.841432171686115,
Celebs/19_Emma_Stone_0006.jpg,non_target,2,0,2,0,0,93,93,22,,,,,,,,,,,,,,580.6727883999993,580.6727883999993,581.1567845000027,,,,,,1,001,21,Male,2023-04-14_12h19.57.541,face_recognition_ERP_protocol,2022.2.5,59.841432171686115,
Celebs/17_Margot_Robbie_0012.jpg,non_target,2,0,2,0,0,94,94,15,,,,,,,,,,,,,,581.6572598000057,581.6572598000057,582.1578117000026,,,,,,1,001,21,Male,2023-04-14_12h19.57.541,face_recognition_ERP_protocol,2022.2.5,59.841432171686115,
Celebs/16_Emma_Stone_0008.jpg,non_target,2,0,2,0,0,95,95,7,,,,,,,,,,,,,,582.6582500000004,582.6582500000004,583.1588076000044,,,,,,1,001,21,Male,2023-04-14_12h19.57.541,face_recognition_ERP_protocol,2022.2.5,59.841432171686115,
Celebs/23_Daniel_Radcliffe_0019.jpg,target,2,0,2,0,0,96,96,47,,,,,,,,,,,,,,583.659375700001,583.659375700001,584.1599582999988,,,,,,1,001,21,Male,2023-04-14_12h19.57.541,face_recognition_ERP_protocol,2022.2.5,59.841432171686115,
Celebs/44_Will_Smith_0006.jpg,non_target,2,0,2,0,0,97,97,91,,,,,,,,,,,,,,584.660412199999,584.660412199999,585.1610327000017,,,,,,1,001,21,Male,2023-04-14_12h19.57.541,face_recognition_ERP_protocol,2022.2.5,59.841432171686115,
Celebs/20_Margot_Robbie_0004.jpg,non_target,2,0,2,0,0,98,98,27,,,,,,,,,,,,,,585.6630884000042,585.6630884000042,586.1621344000014,,,,,,1,001,21,Male,2023-04-14_12h19.57.541,face_recognition_ERP_protocol,2022.2.5,59.841432171686115,
Celebs/58_Jackie_Chan_0005.jpg,non_target,2,0,2,0,0,99,99,119,,,,,,,,,,,,,,586.6626793000032,586.6626793000032,587.1631816000008,,,,,,1,001,21,Male,2023-04-14_12h19.57.541,face_recognition_ERP_protocol,2022.2.5,59.841432171686115,
Celebs/24_Daniel_Radcliffe_0017.jpg,target,2,0,2,0,0,100,100,49,,,,,,,,,,,,,,587.6636231000011,587.6636231000011,588.164392300001,,,,,,1,001,21,Male,2023-04-14_12h19.57.541,face_recognition_ERP_protocol,2022.2.5,59.841432171686115,
Celebs/21_Emma_Stone_0002.jpg,non_target,2,0,2,0,0,101,101,34,,,,,,,,,,,,,,588.6646648000024,588.6646648000024,589.165413200004,,,,,,1,001,21,Male,2023-04-14_12h19.57.541,face_recognition_ERP_protocol,2022.2.5,59.841432171686115,
Celebs/27_Scarlett_Johansson_0012.jpg,non_target,2,0,2,0,0,102,102,56,,,,,,,,,,,,,,589.6659383000006,589.6659383000006,590.166573100003,,,,,,1,001,21,Male,2023-04-14_12h19.57.541,face_recognition_ERP_protocol,2022.2.5,59.841432171686115,
Celebs/45_Will_Smith_0014.jpg,non_target,2,0,2,0,0,103,103,96,,,,,,,,,,,,,,590.6670187000054,590.6670187000054,591.1677622999996,,,,,,1,001,21,Male,2023-04-14_12h19.57.541,face_recognition_ERP_protocol,2022.2.5,59.841432171686115,
Celebs/42_Will_Smith_0012.jpg,non_target,2,0,2,0,0,104,104,87,,,,,,,,,,,,,,591.6682346000016,591.6682346000016,592.1687072999994,,,,,,1,001,21,Male,2023-04-14_12h19.57.541,face_recognition_ERP_protocol,2022.2.5,59.841432171686115,
Celebs/33_Neil_Patrick_Harris_0011.jpg,non_target,2,0,2,0,0,105,105,65,,,,,,,,,,,,,,592.6691195000021,592.6691195000021,593.169896600004,,,,,,1,001,21,Male,2023-04-14_12h19.57.541,face_recognition_ERP_protocol,2022.2.5,59.841432171686115,
Celebs/50_Johnny_Depp_0018.jpg,non_target,2,0,2,0,0,106,106,109,,,,,,,,,,,,,,593.6705364000009,593.6705364000009,594.1709641999987,,,,,,1,001,21,Male,2023-04-14_12h19.57.541,face_recognition_ERP_protocol,2022.2.5,59.841432171686115,
Celebs/29_Scarlett_Johansson_0010.jpg,non_target,2,0,2,0,0,107,107,58,,,,,,,,,,,,,,594.6715068000049,594.6715068000049,595.1720476000046,,,,,,1,001,21,Male,2023-04-14_12h19.57.541,face_recognition_ERP_protocol,2022.2.5,59.841432171686115,
Celebs/20_Margot_Robbie_0006.jpg,non_target,2,0,2,0,0,108,108,28,,,,,,,,,,,,,,595.6725435000044,595.6725435000044,596.1564004000029,,,,,,1,001,21,Male,2023-04-14_12h19.57.541,face_recognition_ERP_protocol,2022.2.5,59.841432171686115,
Celebs/38_Will_Smith_0013.jpg,non_target,2,0,2,0,0,109,109,77,,,,,,,,,,,,,,596.6569674000057,596.6569674000057,597.1575359999988,,,,,,1,001,21,Male,2023-04-14_12h19.57.541,face_recognition_ERP_protocol,2022.2.5,59.841432171686115,
Celebs/28_Scarlett_Johansson_0005.jpg,non_target,2,0,2,0,0,110,110,57,,,,,,,,,,,,,,597.6581532000055,597.6581532000055,598.1586102000001,,,,,,1,001,21,Male,2023-04-14_12h19.57.541,face_recognition_ERP_protocol,2022.2.5,59.841432171686115,
Celebs/19_Margot_Robbie_0001.jpg,non_target,2,0,2,0,0,111,111,23,,,,,,,,,,,,,,598.6589903000058,598.6589903000058,599.1596997000015,,,,,,1,001,21,Male,2023-04-14_12h19.57.541,face_recognition_ERP_protocol,2022.2.5,59.841432171686115,
Celebs/55_Jackie_Chan_0003.jpg,non_target,2,0,2,0,0,112,112,114,,,,,,,,,,,,,,599.6602105999991,599.6602105999991,600.1608262000009,,,,,,1,001,21,Male,2023-04-14_12h19.57.541,face_recognition_ERP_protocol,2022.2.5,59.841432171686115,
Celebs/18_Daniel_Radcliffe_0008.jpg,target,2,0,2,0,0,113,113,19,,,,,,,,,,,,,,600.6613186000031,600.6613186000031,601.1619136000008,,,,,,1,001,21,Male,2023-04-14_12h19.57.541,face_recognition_ERP_protocol,2022.2.5,59.841432171686115,
Celebs/26_Scarlett_Johansson_0008.jpg,non_target,2,0,2,0,0,114,114,55,,,,,,,,,,,,,,601.6624398999993,601.6624398999993,602.1629494000008,,,,,,1,001,21,Male,2023-04-14_12h19.57.541,face_recognition_ERP_protocol,2022.2.5,59.841432171686115,
Celebs/44_Will_Smith_0007.jpg,non_target,2,0,2,0,0,115,115,92,,,,,,,,,,,,,,602.6634657000031,602.6634657000031,603.1639297000002,,,,,,1,001,21,Male,2023-04-14_12h19.57.541,face_recognition_ERP_protocol,2022.2.5,59.841432171686115,
Celebs/18_Emma_Stone_0016.jpg,non_target,2,0,2,0,0,116,116,20,,,,,,,,,,,,,,603.6644319000043,603.6644319000043,604.1652193000045,,,,,,1,001,21,Male,2023-04-14_12h19.57.541,face_recognition_ERP_protocol,2022.2.5,59.841432171686115,
Celebs/32_Jim_Parsons_0010.jpg,non_target,2,0,2,0,0,117,117,61,,,,,,,,,,,,,,604.667892700003,604.667892700003,605.1664588000058,,,,,,1,001,21,Male,2023-04-14_12h19.57.541,face_recognition_ERP_protocol,2022.2.5,59.841432171686115,
Celebs/14_Emma_Watson_0008.jpg,non_target,2,0,2,0,0,118,118,2,,,,,,,,,,,,,,605.6667625000046,605.6667625000046,606.1675636,,,,,,1,001,21,Male,2023-04-14_12h19.57.541,face_recognition_ERP_protocol,2022.2.5,59.841432171686115,
Celebs/18_Daniel_Radcliffe_0002.jpg,target,2,0,2,0,0,119,119,17,,,,,,,,,,,,,,606.6680153999987,606.6680153999987,607.1686943000022,,,,,,1,001,21,Male,2023-04-14_12h19.57.541,face_recognition_ERP_protocol,2022.2.5,59.841432171686115,
Celebs/24_Scarlett_Johansson_0001.jpg,non_target,3,0,3,0,0,0,0,51,,,,,,,,,,,,,,620.4517641000057,620.4517641000057,620.9336809000015,607.669164400002,607.669164400002,space,12.717596499998763,,1,001,21,Male,2023-04-14_12h19.57.541,face_recognition_ERP_protocol,2022.2.5,59.841432171686115,
Celebs/39_Jim_Parsons_0001.jpg,non_target,3,0,3,0,0,1,1,78,,,,,,,,,,,,,,621.4341627000031,621.4341627000031,621.9347588000019,,,,,,1,001,21,Male,2023-04-14_12h19.57.541,face_recognition_ERP_protocol,2022.2.5,59.841432171686115,
Celebs/22_Scarlett_Johansson_0005.jpg,non_target,3,0,3,0,0,2,2,44,,,,,,,,,,,,,,622.4186880000052,622.4186880000052,622.9191572000054,,,,,,1,001,21,Male,2023-04-14_12h19.57.541,face_recognition_ERP_protocol,2022.2.5,59.841432171686115,
Celebs/40_Jim_Parsons_0015.jpg,non_target,3,0,3,0,0,3,3,85,,,,,,,,,,,,,,623.4196928000019,623.4196928000019,623.9203806000005,,,,,,1,001,21,Male,2023-04-14_12h19.57.541,face_recognition_ERP_protocol,2022.2.5,59.841432171686115,
Celebs/18_Daniel_Radcliffe_0008.jpg,target,3,0,3,0,0,4,4,19,,,,,,,,,,,,,,624.420887100001,624.420887100001,624.9217871000001,,,,,,1,001,21,Male,2023-04-14_12h19.57.541,face_recognition_ERP_protocol,2022.2.5,59.841432171686115,
Celebs/50_Jackie_Chan_0012.jpg,non_target,3,0,3,0,0,5,5,104,,,,,,,,,,,,,,625.4219169999997,625.4219169999997,625.9229322000028,,,,,,1,001,21,Male,2023-04-14_12h19.57.541,face_recognition_ERP_protocol,2022.2.5,59.841432171686115,
Celebs/34_Neil_Patrick_Harris_0007.jpg,non_target,3,0,3,0,0,6,6,67,,,,,,,,,,,,,,626.4230289000043,626.4230289000043,626.9236908000021,,,,,,1,001,21,Male,2023-04-14_12h19.57.541,face_recognition_ERP_protocol,2022.2.5,59.841432171686115,
Celebs/22_Emma_Stone_0013.jpg,non_target,3,0,3,0,0,7,7,39,,,,,,,,,,,,,,627.4243351000041,627.4243351000041,627.9247489000045,,,,,,1,001,21,Male,2023-04-14_12h19.57.541,face_recognition_ERP_protocol,2022.2.5,59.841432171686115,
Celebs/19_Margot_Robbie_0001.jpg,non_target,3,0,3,0,0,8,8,23,,,,,,,,,,,,,,628.4253701999987,628.4253701999987,628.9258278999987,,,,,,1,001,21,Male,2023-04-14_12h19.57.541,face_recognition_ERP_protocol,2022.2.5,59.841432171686115,
Celebs/29_Scarlett_Johansson_0016.jpg,non_target,3,0,3,0,0,9,9,59,,,,,,,,,,,,,,629.4262110000054,629.4262110000054,629.9269495000044,,,,,,1,001,21,Male,2023-04-14_12h19.57.541,face_recognition_ERP_protocol,2022.2.5,59.841432171686115,
Celebs/28_Scarlett_Johansson_0005.jpg,non_target,3,0,3,0,0,10,10,57,,,,,,,,,,,,,,630.4275678000049,630.4275678000049,630.9279805000042,,,,,,1,001,21,Male,2023-04-14_12h19.57.541,face_recognition_ERP_protocol,2022.2.5,59.841432171686115,
Celebs/14_Emma_Watson_0013.jpg,non_target,3,0,3,0,0,11,11,3,,,,,,,,,,,,,,631.4284947999986,631.4284947999986,631.9290796999994,,,,,,1,001,21,Male,2023-04-14_12h19.57.541,face_recognition_ERP_protocol,2022.2.5,59.841432171686115,
Celebs/48_Johnny_Depp_0001.jpg,non_target,3,0,3,0,0,12,12,100,,,,,,,,,,,,,,632.4298207000029,632.4298207000029,632.9301756999994,,,,,,1,001,21,Male,2023-04-14_12h19.57.541,face_recognition_ERP_protocol,2022.2.5,59.841432171686115,
Celebs/39_Jim_Parsons_0010.jpg,non_target,3,0,3,0,0,13,13,81,,,,,,,,,,,,,,633.4307915000027,633.4307915000027,633.9312739000015,,,,,,1,001,21,Male,2023-04-14_12h19.57.541,face_recognition_ERP_protocol,2022.2.5,59.841432171686115,
Celebs/44_Will_Smith_0007.jpg,non_target,3,0,3,0,0,14,14,92,,,,,,,,,,,,,,634.4318395000009,634.4318395000009,634.932647900001,,,,,,1,001,21,Male,2023-04-14_12h19.57.541,face_recognition_ERP_protocol,2022.2.5,59.841432171686115,
Celebs/15_Margot_Robbie_0012.jpg,non_target,3,0,3,0,0,15,15,6,,,,,,,,,,,,,,635.4326913000041,635.4326913000041,635.9333176,,,,,,1,001,21,Male,2023-04-14_12h19.57.541,face_recognition_ERP_protocol,2022.2.5,59.841432171686115,
Celebs/43_Will_Smith_0010.jpg,non_target,3,0,3,0,0,16,16,90,,,,,,,,,,,,,,636.435521600004,636.435521600004,636.9345701000057,,,,,,1,001,21,Male,2023-04-14_12h19.57.541,face_recognition_ERP_protocol,2022.2.5,59.841432171686115,
Celebs/55_Jackie_Chan_0015.jpg,non_target,3,0,3,0,0,17,17,116,,,,,,,,,,,,,,637.4355475000048,637.4355475000048,637.9189498000051,,,,,,1,001,21,Male,2023-04-14_12h19.57.541,face_recognition_ERP_protocol,2022.2.5,59.841432171686115,
Celebs/49_Johnny_Depp_0013.jpg,non_target,3,0,3,0,0,18,18,103,,,,,,,,,,,,,,638.4193891000032,638.4193891000032,638.9200523000036,,,,,,1,001,21,Male,2023-04-14_12h19.57.541,face_recognition_ERP_protocol,2022.2.5,59.841432171686115,
Celebs/48_Johnny_Depp_0003.jpg,non_target,3,0,3,0,0,19,19,101,,,,,,,,,,,,,,639.4206208000032,639.4206208000032,639.9210001000029,,,,,,1,001,21,Male,2023-04-14_12h19.57.541,face_recognition_ERP_protocol,2022.2.5,59.841432171686115,
Celebs/39_Neil_Patrick_Harris_0010.jpg,non_target,3,0,3,0,0,20,20,83,,,,,,,,,,,,,,640.421762900005,640.421762900005,640.9222551999992,,,,,,1,001,21,Male,2023-04-14_12h19.57.541,face_recognition_ERP_protocol,2022.2.5,59.841432171686115,
Celebs/16_Emma_Stone_0012.jpg,non_target,3,0,3,0,0,21,21,9,,,,,,,,,,,,,,641.422785499999,641.422785499999,641.923397999999,,,,,,1,001,21,Male,2023-04-14_12h19.57.541,face_recognition_ERP_protocol,2022.2.5,59.841432171686115,
Celebs/50_Johnny_Depp_0010.jpg,non_target,3,0,3,0,0,22,22,108,,,,,,,,,,,,,,642.4239369999996,642.4239369999996,642.9245286000005,,,,,,1,001,21,Male,2023-04-14_12h19.57.541,face_recognition_ERP_protocol,2022.2.5,59.841432171686115,
Celebs/21_Emma_Stone_0002.jpg,non_target,3,0,3,0,0,23,23,34,,,,,,,,,,,,,,643.4248740000039,643.4248740000039,643.9255952000021,,,,,,1,001,21,Male,2023-04-14_12h19.57.541,face_recognition_ERP_protocol,2022.2.5,59.841432171686115,
Celebs/21_Emma_Stone_0003.jpg,non_target,3,0,3,0,0,24,24,35,,,,,,,,,,,,,,644.4261536000049,644.4261536000049,644.9267239000037,,,,,,1,001,21,Male,2023-04-14_12h19.57.541,face_recognition_ERP_protocol,2022.2.5,59.841432171686115,
Celebs/29_Scarlett_Johansson_0010.jpg,non_target,3,0,3,0,0,25,25,58,,,,,,,,,,,,,,645.4277446999986,645.4277446999986,645.9277459000004,,,,,,1,001,21,Male,2023-04-14_12h19.57.541,face_recognition_ERP_protocol,2022.2.5,59.841432171686115,
Celebs/33_Neil_Patrick_Harris_0011.jpg,non_target,3,0,3,0,0,26,26,65,,,,,,,,,,,,,,646.4283466000052,646.4283466000052,646.9289000999997,,,,,,1,001,21,Male,2023-04-14_12h19.57.541,face_recognition_ERP_protocol,2022.2.5,59.841432171686115,
Celebs/14_Emma_Watson_0008.jpg,non_target,3,0,3,0,0,27,27,2,,,,,,,,,,,,,,647.4293595999989,647.4293595999989,647.9299911000053,,,,,,1,001,21,Male,2023-04-14_12h19.57.541,face_recognition_ERP_protocol,2022.2.5,59.841432171686115,
Celebs/21_Daniel_Radcliffe_0002.jpg,target,3,0,3,0,0,28,28,30,,,,,,,,,,,,,,648.4304770000017,648.4304770000017,648.9310776999992,,,,,,1,001,21,Male,2023-04-14_12h19.57.541,face_recognition_ERP_protocol,2022.2.5,59.841432171686115,
Celebs/38_Jim_Parsons_0003.jpg,non_target,3,0,3,0,0,29,29,75,,,,,,,,,,,,,,649.4314746000018,649.4314746000018,649.9321522000027,,,,,,1,001,21,Male,2023-04-14_12h19.57.541,face_recognition_ERP_protocol,2022.2.5,59.841432171686115,
Celebs/21_Daniel_Radcliffe_0008.jpg,target,3,0,3,0,0,30,30,31,,,,,,,,,,,,,,650.4327338000003,650.4327338000003,650.9332807000028,,,,,,1,001,21,Male,2023-04-14_12h19.57.541,face_recognition_ERP_protocol,2022.2.5,59.841432171686115,
Celebs/16_Emma_Stone_0008.jpg,non_target,3,0,3,0,0,31,31,7,,,,,,,,,,,,,,651.4336050000056,651.4336050000056,651.9342801000021,,,,,,1,001,21,Male,2023-04-14_12h19.57.541,face_recognition_ERP_protocol,2022.2.5,59.841432171686115,
Celebs/40_Jim_Parsons_0004.jpg,non_target,3,0,3,0,0,32,32,84,,,,,,,,,,,,,,652.4347248000049,652.4347248000049,652.9187886,,,,,,1,001,21,Male,2023-04-14_12h19.57.541,face_recognition_ERP_protocol,2022.2.5,59.841432171686115,
Celebs/54_Jackie_Chan_0001.jpg,non_target,3,0,3,0,0,33,33,112,,,,,,,,,,,,,,653.4193052000046,653.4193052000046,653.9198412000042,,,,,,1,001,21,Male,2023-04-14_12h19.57.541,face_recognition_ERP_protocol,2022.2.5,59.841432171686115,
Celebs/14_Emma_Watson_0015.jpg,non_target,3,0,3,0,0,34,34,4,,,,,,,,,,,,,,654.4203938999999,654.4203938999999,654.9209884000011,,,,,,1,001,21,Male,2023-04-14_12h19.57.541,face_recognition_ERP_protocol,2022.2.5,59.841432171686115,
Celebs/24_Emma_Stone_0015.jpg,non_target,3,0,3,0,0,35,35,50,,,,,,,,,,,,,,655.4214980000033,655.4214980000033,655.9220465000035,,,,,,1,001,21,Male,2023-04-14_12h19.57.541,face_recognition_ERP_protocol,2022.2.5,59.841432171686115,
Celebs/37_Neil_Patrick_Harris_0010.jpg,non_target,3,0,3,0,0,36,36,72,,,,,,,,,,,,,,656.4226758000004,656.4226758000004,656.9231524999996,,,,,,1,001,21,Male,2023-04-14_12h19.57.541,face_recognition_ERP_protocol,2022.2.5,59.841432171686115,
Celebs/43_Will_Smith_0007.jpg,non_target,3,0,3,0,0,37,37,89,,,,,,,,,,,,,,657.4236977000037,657.4236977000037,657.9242255999998,,,,,,1,001,21,Male,2023-04-14_12h19.57.541,face_recognition_ERP_protocol,2022.2.5,59.841432171686115,
Celebs/36_Jim_Parsons_0011.jpg,non_target,3,0,3,0,0,38,38,69,,,,,,,,,,,,,,658.4248701000033,658.4248701000033,658.9254694000047,,,,,,1,001,21,Male,2023-04-14_12h19.57.541,face_recognition_ERP_protocol,2022.2.5,59.841432171686115,
Celebs/23_Emma_Stone_0014.jpg,non_target,3,0,3,0,0,39,39,48,,,,,,,,,,,,,,659.4259014999989,659.4259014999989,659.9264034000007,,,,,,1,001,21,Male,2023-04-14_12h19.57.541,face_recognition_ERP_protocol,2022.2.5,59.841432171686115,
Celebs/45_Johnny_Depp_0003.jpg,non_target,3,0,3,0,0,40,40,94,,,,,,,,,,,,,,660.4270380000016,660.4270380000016,660.9275493000023,,,,,,1,001,21,Male,2023-04-14_12h19.57.541,face_recognition_ERP_protocol,2022.2.5,59.841432171686115,
Celebs/17_Margot_Robbie_0012.jpg,non_target,3,0,3,0,0,41,41,15,,,,,,,,,,,,,,661.4281716000041,661.4281716000041,661.9287709000055,,,,,,1,001,21,Male,2023-04-14_12h19.57.541,face_recognition_ERP_protocol,2022.2.5,59.841432171686115,
Celebs/38_Will_Smith_0013.jpg,non_target,3,0,3,0,0,42,42,77,,,,,,,,,,,,,,662.4292468000058,662.4292468000058,662.9297308000023,,,,,,1,001,21,Male,2023-04-14_12h19.57.541,face_recognition_ERP_protocol,2022.2.5,59.841432171686115,
Celebs/50_Johnny_Depp_0004.jpg,non_target,3,0,3,0,0,43,43,106,,,,,,,,,,,,,,663.4302829000007,663.4302829000007,663.9308059000032,,,,,,1,001,21,Male,2023-04-14_12h19.57.541,face_recognition_ERP_protocol,2022.2.5,59.841432171686115,
Celebs/23_Daniel_Radcliffe_0002.jpg,target,3,0,3,0,0,44,44,45,,,,,,,,,,,,,,664.4313340000008,664.4313340000008,664.9319822000034,,,,,,1,001,21,Male,2023-04-14_12h19.57.541,face_recognition_ERP_protocol,2022.2.5,59.841432171686115,
Celebs/15_Margot_Robbie_0005.jpg,non_target,3,0,3,0,0,45,45,5,,,,,,,,,,,,,,665.4324479999996,665.4324479999996,665.9330999000013,,,,,,1,001,21,Male,2023-04-14_12h19.57.541,face_recognition_ERP_protocol,2022.2.5,59.841432171686115,
Celebs/23_Daniel_Radcliffe_0019.jpg,target,3,0,3,0,0,46,46,47,,,,,,,,,,,,,,666.4334070000041,666.4334070000041,666.9341015000027,,,,,,1,001,21,Male,2023-04-14_12h19.57.541,face_recognition_ERP_protocol,2022.2.5,59.841432171686115,
Celebs/44_Will_Smith_0015.jpg,non_target,3,0,3,0,0,47,47,93,,,,,,,,,,,,,,667.4344738,667.4344738,667.9351045000003,,,,,,1,001,21,Male,2023-04-14_12h19.57.541,face_recognition_ERP_protocol,2022.2.5,59.841432171686115,
Celebs/47_Johnny_Depp_0003.jpg,non_target,3,0,3,0,0,48,48,97,,,,,,,,,,,,,,668.418972200001,668.418972200001,668.9195760000002,,,,,,1,001,21,Male,2023-04-14_12h19.57.541,face_recognition_ERP_protocol,2022.2.5,59.841432171686115,
Celebs/58_Jackie_Chan_0005.jpg,non_target,3,0,3,0,0,49,49,119,,,,,,,,,,,,,,669.4201099000056,669.4201099000056,669.9206934000031,,,,,,1,001,21,Male,2023-04-14_12h19.57.541,face_recognition_ERP_protocol,2022.2.5,59.841432171686115,
Celebs/57_Jackie_Chan_0010.jpg,non_target,3,0,3,0,0,50,50,118,,,,,,,,,,,,,,670.4212841000044,670.4212841000044,670.9217942000032,,,,,,1,001,21,Male,2023-04-14_12h19.57.541,face_recognition_ERP_protocol,2022.2.5,59.841432171686115,
Celebs/39_Jim_Parsons_0004.jpg,non_target,3,0,3,0,0,51,51,79,,,,,,,,,,,,,,671.422263600005,671.422263600005,671.9228245000049,,,,,,1,001,21,Male,2023-04-14_12h19.57.541,face_recognition_ERP_protocol,2022.2.5,59.841432171686115,
Celebs/34_Neil_Patrick_Harris_0004.jpg,non_target,3,0,3,0,0,52,52,66,,,,,,,,,,,,,,672.4234036999987,672.4234036999987,672.9240682000018,,,,,,1,001,21,Male,2023-04-14_12h19.57.541,face_recognition_ERP_protocol,2022.2.5,59.841432171686115,
Celebs/20_Emma_Watson_0007.jpg,non_target,3,0,3,0,0,53,53,26,,,,,,,,,,,,,,673.424457699999,673.424457699999,673.9251547000022,,,,,,1,001,21,Male,2023-04-14_12h19.57.541,face_recognition_ERP_protocol,2022.2.5,59.841432171686115,
Celebs/17_Emma_Watson_0006.jpg,non_target,3,0,3,0,0,54,54,13,,,,,,,,,,,,,,674.4256921999986,674.4256921999986,674.9261035000018,,,,,,1,001,21,Male,2023-04-14_12h19.57.541,face_recognition_ERP_protocol,2022.2.5,59.841432171686115,
Celebs/54_Jackie_Chan_0014.jpg,non_target,3,0,3,0,0,55,55,113,,,,,,,,,,,,,,675.4265973000001,675.4265973000001,675.9272473000019,,,,,,1,001,21,Male,2023-04-14_12h19.57.541,face_recognition_ERP_protocol,2022.2.5,59.841432171686115,
Celebs/48_Johnny_Depp_0005.jpg,non_target,3,0,3,0,0,56,56,102,,,,,,,,,,,,,,676.4276444999996,676.4276444999996,676.9282747000034,,,,,,1,001,21,Male,2023-04-14_12h19.57.541,face_recognition_ERP_protocol,2022.2.5,59.841432171686115,
Celebs/17_Margot_Robbie_0014.jpg,non_target,3,0,3,0,0,57,57,16,,,,,,,,,,,,,,677.4289786000008,677.4289786000008,677.9294254000051,,,,,,1,001,21,Male,2023-04-14_12h19.57.541,face_recognition_ERP_protocol,2022.2.5,59.841432171686115,
Celebs/35_Neil_Patrick_Harris_0009.jpg,non_target,3,0,3,0,0,58,58,68,,,,,,,,,,,,,,678.4300831,678.4300831,678.9304985999988,,,,,,1,001,21,Male,2023-04-14_12h19.57.541,face_recognition_ERP_protocol,2022.2.5,59.841432171686115,
Celebs/32_Jim_Parsons_0016.jpg,non_target,3,0,3,0,0,59,59,62,,,,,,,,,,,,,,679.4310751000012,679.4310751000012,679.9316005000001,,,,,,1,001,21,Male,2023-04-14_12h19.57.541,face_recognition_ERP_protocol,2022.2.5,59.841432171686115,
Celebs/21_Emma_Watson_0004.jpg,non_target,3,0,3,0,0,60,60,36,,,,,,,,,,,,,,680.4322317000042,680.4322317000042,680.9327065000034,,,,,,1,001,21,Male,2023-04-14_12h19.57.541,face_recognition_ERP_protocol,2022.2.5,59.841432171686115,
Celebs/20_Margot_Robbie_0004.jpg,non_target,3,0,3,0,0,61,61,27,,,,,,,,,,,,,,681.4332303000047,681.4332303000047,681.9338530000023,,,,,,1,001,21,Male,2023-04-14_12h19.57.541,face_recognition_ERP_protocol,2022.2.5,59.841432171686115,
Celebs/25_Scarlett_Johansson_0010.jpg,non_target,3,0,3,0,0,62,62,53,,,,,,,,,,,,,,682.4342137999993,682.4342137999993,682.9348844000051,,,,,,1,001,21,Male,2023-04-14_12h19.57.541,face_recognition_ERP_protocol,2022.2.5,59.841432171686115,
Celebs/31_Neil_Patrick_Harris_0008.jpg,non_target,3,0,3,0,0,63,63,60,,,,,,,,,,,,,,683.4185576000018,683.4185576000018,683.9192977999992,,,,,,1,001,21,Male,2023-04-14_12h19.57.541,face_recognition_ERP_protocol,2022.2.5,59.841432171686115,
Celebs/39_Jim_Parsons_0008.jpg,non_target,3,0,3,0,0,64,64,80,,,,,,,,,,,,,,684.4198259000041,684.4198259000041,684.920392400003,,,,,,1,001,21,Male,2023-04-14_12h19.57.541,face_recognition_ERP_protocol,2022.2.5,59.841432171686115,
