image,stimulus,trial_block.thisRepN,trial_block.thisTrialN,trial_block.thisN,trial_block.thisIndex,trials.thisRepN,trials.thisTrialN,trials.thisN,trials.thisIndex,welcome_text.started,welcome_text.stopped,instructions_text.started,spacebar_key.started,spacebar_key.keys,spacebar_key.rt,eye_text.started,eye_text.stopped,text.started,text.stopped,closedEyes_text.started,beep.started,closedEyes_text.stopped,trialImage.started,polygon.started,blank_text.started,trialBlockText.started,new_trialblock.started,new_trialblock.keys,new_trialblock.rt,goodbye_text.started,participant,session,age,gender,date,expName,psychopyVersion,frameRate,
,,,,,,,,,,42.401746699999876,44.4053793999999,44.4053793999999,44.4053793999999,space,60.50216780000005,,,,,,,,,,,,,,,,2,0010,25,sentadosom,2023-06-21_18h17.51.912,face_recognition_ERP_protocol,2022.2.5,59.98444003621342,
Celebs/54_Jackie_Chan_0001.jpg,non_target,0,0,0,0,0,0,0,7,,,,,,,104.9375928999998,119.93732029999978,119.93732029999978,134.93710479999982,134.93710479999982,149.93681942999993,149.9366481999998,149.99928779999982,149.99928779999982,150.46648489999984,,,,,,2,0010,25,sentadosom,2023-06-21_18h17.51.912,face_recognition_ERP_protocol,2022.2.5,59.98444003621342,
Celebs/22_Scarlett_Johansson_0005.jpg,non_target,0,0,0,0,0,1,1,44,,,,,,,,,,,,,,150.97129919999998,150.97129919999998,151.4549874999998,,,,,,2,0010,25,sentadosom,2023-06-21_18h17.51.912,face_recognition_ERP_protocol,2022.2.5,59.98444003621342,
Celebs/14_Emma_Watson_0013.jpg,non_target,0,0,0,0,0,2,2,20,,,,,,,,,,,,,,151.9681238999999,151.9681238999999,152.4686792,,,,,,2,0010,25,sentadosom,2023-06-21_18h17.51.912,face_recognition_ERP_protocol,2022.2.5,59.98444003621342,
Celebs/23_Daniel_Radcliffe_0010.jpg,target,0,0,0,0,0,3,3,15,,,,,,,,,,,,,,152.98591539999984,152.98591539999984,153.4698116999998,,,,,,2,0010,25,sentadosom,2023-06-21_18h17.51.912,face_recognition_ERP_protocol,2022.2.5,59.98444003621342,
Celebs/20_Emma_Stone_0005.jpg,non_target,0,0,0,0,0,4,4,63,,,,,,,,,,,,,,153.98707979999995,153.98707979999995,154.47086079999985,,,,,,2,0010,25,sentadosom,2023-06-21_18h17.51.912,face_recognition_ERP_protocol,2022.2.5,59.98444003621342,
Celebs/25_Scarlett_Johansson_0010.jpg,non_target,0,0,0,0,0,5,5,32,,,,,,,,,,,,,,154.9547531999999,154.9547531999999,155.45526559999985,,,,,,2,0010,25,sentadosom,2023-06-21_18h17.51.912,face_recognition_ERP_protocol,2022.2.5,59.98444003621342,
Celebs/48_Johnny_Depp_0005.jpg,non_target,0,0,0,0,0,6,6,54,,,,,,,,,,,,,,155.9556263999998,155.9556263999998,156.4563581,,,,,,2,0010,25,sentadosom,2023-06-21_18h17.51.912,face_recognition_ERP_protocol,2022.2.5,59.98444003621342,
Celebs/18_Daniel_Radcliffe_0002.jpg,target,0,0,0,0,0,7,7,119,,,,,,,,,,,,,,156.97361189999992,156.97361189999992,157.45744449999984,,,,,,2,0010,25,sentadosom,2023-06-21_18h17.51.912,face_recognition_ERP_protocol,2022.2.5,59.98444003621342,
Celebs/39_Neil_Patrick_Harris_0010.jpg,non_target,0,0,0,0,0,8,8,94,,,,,,,,,,,,,,157.97469679999995,157.97469679999995,158.4585404999998,,,,,,2,0010,25,sentadosom,2023-06-21_18h17.51.912,face_recognition_ERP_protocol,2022.2.5,59.98444003621342,
Celebs/29_Scarlett_Johansson_0010.jpg,non_target,0,0,0,0,0,9,9,85,,,,,,,,,,,,,,158.97581019999984,158.97581019999984,159.45964179999987,,,,,,2,0010,25,sentadosom,2023-06-21_18h17.51.912,face_recognition_ERP_protocol,2022.2.5,59.98444003621342,
Celebs/18_Daniel_Radcliffe_0008.jpg,target,0,0,0,0,0,10,10,28,,,,,,,,,,,,,,159.9599791999999,159.9599791999999,160.4607563999998,,,,,,2,0010,25,sentadosom,2023-06-21_18h17.51.912,face_recognition_ERP_protocol,2022.2.5,59.98444003621342,
Celebs/22_Emma_Stone_0013.jpg,non_target,0,0,0,0,0,11,11,1,,,,,,,,,,,,,,160.96529539999983,160.96529539999983,161.46587809999983,,,,,,2,0010,25,sentadosom,2023-06-21_18h17.51.912,face_recognition_ERP_protocol,2022.2.5,59.98444003621342,
Celebs/28_Scarlett_Johansson_0005.jpg,non_target,0,0,0,0,0,12,12,50,,,,,,,,,,,,,,161.9672258999999,161.9672258999999,162.46701129999997,,,,,,2,0010,25,sentadosom,2023-06-21_18h17.51.912,face_recognition_ERP_protocol,2022.2.5,59.98444003621342,
Celebs/21_Scarlett_Johansson_0007.jpg,non_target,0,0,0,0,0,13,13,118,,,,,,,,,,,,,,162.98020439999982,162.98020439999982,163.4640258999998,,,,,,2,0010,25,sentadosom,2023-06-21_18h17.51.912,face_recognition_ERP_protocol,2022.2.5,59.98444003621342,
Celebs/44_Will_Smith_0006.jpg,non_target,0,0,0,0,0,14,14,41,,,,,,,,,,,,,,163.96440989999996,163.96440989999996,164.46513259999983,,,,,,2,0010,25,sentadosom,2023-06-21_18h17.51.912,face_recognition_ERP_protocol,2022.2.5,59.98444003621342,
Celebs/43_Will_Smith_0006.jpg,non_target,0,0,0,0,0,15,15,61,,,,,,,,,,,,,,164.96551639999984,164.96551639999984,165.4661908999999,,,,,,2,0010,25,sentadosom,2023-06-21_18h17.51.912,face_recognition_ERP_protocol,2022.2.5,59.98444003621342,
Celebs/37_Neil_Patrick_Harris_0014.jpg,non_target,0,0,0,0,0,16,16,37,,,,,,,,,,,,,,165.98342419999994,165.98342419999994,166.4673068999998,,,,,,2,0010,25,sentadosom,2023-06-21_18h17.51.912,face_recognition_ERP_protocol,2022.2.5,59.98444003621342,
Celebs/40_Will_Smith_0012.jpg,non_target,0,0,0,0,0,17,17,110,,,,,,,,,,,,,,166.98454719999995,166.98454719999995,167.4683832999999,,,,,,2,0010,25,sentadosom,2023-06-21_18h17.51.912,face_recognition_ERP_protocol,2022.2.5,59.98444003621342,
Celebs/32_Jim_Parsons_0016.jpg,non_target,0,0,0,0,0,18,18,102,,,,,,,,,,,,,,167.97332079999978,167.97332079999978,168.45690799999988,,,,,,2,0010,25,sentadosom,2023-06-21_18h17.51.912,face_recognition_ERP_protocol,2022.2.5,59.98444003621342,
Celebs/21_Daniel_Radcliffe_0009.jpg,target,0,0,0,0,0,19,19,83,,,,,,,,,,,,,,168.97007999999983,168.97007999999983,169.47058329999982,,,,,,2,0010,25,sentadosom,2023-06-21_18h17.51.912,face_recognition_ERP_protocol,2022.2.5,59.98444003621342,
Celebs/48_Johnny_Depp_0003.jpg,non_target,0,0,0,0,0,20,20,55,,,,,,,,,,,,,,169.9711448999999,169.9711448999999,170.45512009999993,,,,,,2,0010,25,sentadosom,2023-06-21_18h17.51.912,face_recognition_ERP_protocol,2022.2.5,59.98444003621342,
Celebs/39_Neil_Patrick_Harris_0001.jpg,non_target,0,0,0,0,0,21,21,4,,,,,,,,,,,,,,170.97226439999986,170.97226439999986,171.45606509999993,,,,,,2,0010,25,sentadosom,2023-06-21_18h17.51.912,face_recognition_ERP_protocol,2022.2.5,59.98444003621342,
Celebs/15_Margot_Robbie_0005.jpg,non_target,0,0,0,0,0,22,22,80,,,,,,,,,,,,,,171.9733015999998,171.9733015999998,172.45721709999998,,,,,,2,0010,25,sentadosom,2023-06-21_18h17.51.912,face_recognition_ERP_protocol,2022.2.5,59.98444003621342,
Celebs/21_Daniel_Radcliffe_0012.jpg,target,0,0,0,0,0,23,23,8,,,,,,,,,,,,,,172.9577096999999,172.9577096999999,173.45827759999997,,,,,,2,0010,25,sentadosom,2023-06-21_18h17.51.912,face_recognition_ERP_protocol,2022.2.5,59.98444003621342,
Celebs/21_Margot_Robbie_0003.jpg,non_target,0,0,0,0,0,24,24,27,,,,,,,,,,,,,,173.9754979999998,173.9754979999998,174.4593852999999,,,,,,2,0010,25,sentadosom,2023-06-21_18h17.51.912,face_recognition_ERP_protocol,2022.2.5,59.98444003621342,
Celebs/19_Margot_Robbie_0001.jpg,non_target,0,0,0,0,0,25,25,51,,,,,,,,,,,,,,174.97659169999997,174.97659169999997,175.46043689999988,,,,,,2,0010,25,sentadosom,2023-06-21_18h17.51.912,face_recognition_ERP_protocol,2022.2.5,59.98444003621342,
Celebs/55_Jackie_Chan_0015.jpg,non_target,0,0,0,0,0,26,26,30,,,,,,,,,,,,,,175.9609865,175.9609865,176.46154839999986,,,,,,2,0010,25,sentadosom,2023-06-21_18h17.51.912,face_recognition_ERP_protocol,2022.2.5,59.98444003621342,
Celebs/24_Scarlett_Johansson_0001.jpg,non_target,0,0,0,0,0,27,27,10,,,,,,,,,,,,,,176.96275469999978,176.96275469999978,177.4627857999999,,,,,,2,0010,25,sentadosom,2023-06-21_18h17.51.912,face_recognition_ERP_protocol,2022.2.5,59.98444003621342,
Celebs/14_Emma_Watson_0004.jpg,non_target,0,0,0,0,0,28,28,14,,,,,,,,,,,,,,177.96299489999979,177.96299489999979,178.46379019999995,,,,,,2,0010,25,sentadosom,2023-06-21_18h17.51.912,face_recognition_ERP_protocol,2022.2.5,59.98444003621342,
Celebs/50_Jackie_Chan_0014.jpg,non_target,0,0,0,0,0,29,29,38,,,,,,,,,,,,,,178.9809800999999,178.9809800999999,179.4648282999999,,,,,,2,0010,25,sentadosom,2023-06-21_18h17.51.912,face_recognition_ERP_protocol,2022.2.5,59.98444003621342,
Celebs/23_Emma_Stone_0014.jpg,non_target,0,0,0,0,0,30,30,12,,,,,,,,,,,,,,179.96549419999997,179.96549419999997,180.46595399999978,,,,,,2,0010,25,sentadosom,2023-06-21_18h17.51.912,face_recognition_ERP_protocol,2022.2.5,59.98444003621342,
Celebs/23_Daniel_Radcliffe_0019.jpg,target,0,0,0,0,0,31,31,6,,,,,,,,,,,,,,180.98314489999984,180.98314489999984,181.46701569999982,,,,,,2,0010,25,sentadosom,2023-06-21_18h17.51.912,face_recognition_ERP_protocol,2022.2.5,59.98444003621342,
Celebs/20_Margot_Robbie_0004.jpg,non_target,0,0,0,0,0,32,32,116,,,,,,,,,,,,,,181.96835379999993,181.96835379999993,182.46811129999992,,,,,,2,0010,25,sentadosom,2023-06-21_18h17.51.912,face_recognition_ERP_protocol,2022.2.5,59.98444003621342,
Celebs/38_Will_Smith_0013.jpg,non_target,0,0,0,0,0,33,33,13,,,,,,,,,,,,,,182.9853387999999,182.9853387999999,183.46921069999985,,,,,,2,0010,25,sentadosom,2023-06-21_18h17.51.912,face_recognition_ERP_protocol,2022.2.5,59.98444003621342,
Celebs/21_Emma_Stone_0003.jpg,non_target,0,0,0,0,0,34,34,25,,,,,,,,,,,,,,183.96954159999996,183.96954159999996,184.47029929999985,,,,,,2,0010,25,sentadosom,2023-06-21_18h17.51.912,face_recognition_ERP_protocol,2022.2.5,59.98444003621342,
Celebs/19_Emma_Stone_0006.jpg,non_target,0,0,0,0,0,35,35,66,,,,,,,,,,,,,,184.9708311999998,184.9708311999998,185.45469089999983,,,,,,2,0010,25,sentadosom,2023-06-21_18h17.51.912,face_recognition_ERP_protocol,2022.2.5,59.98444003621342,
Celebs/39_Jim_Parsons_0010.jpg,non_target,0,0,0,0,0,36,36,0,,,,,,,,,,,,,,185.9552867,185.9552867,186.45580829999994,,,,,,2,0010,25,sentadosom,2023-06-21_18h17.51.912,face_recognition_ERP_protocol,2022.2.5,59.98444003621342,
Celebs/15_Margot_Robbie_0012.jpg,non_target,0,0,0,0,0,37,37,82,,,,,,,,,,,,,,186.97308469999984,186.97308469999984,187.4569465999998,,,,,,2,0010,25,sentadosom,2023-06-21_18h17.51.912,face_recognition_ERP_protocol,2022.2.5,59.98444003621342,
Celebs/57_Jackie_Chan_0010.jpg,non_target,0,0,0,0,0,38,38,62,,,,,,,,,,,,,,187.95749979999982,187.95749979999982,188.4579827,,,,,,2,0010,25,sentadosom,2023-06-21_18h17.51.912,face_recognition_ERP_protocol,2022.2.5,59.98444003621342,
Celebs/17_Margot_Robbie_0012.jpg,non_target,0,0,0,0,0,39,39,67,,,,,,,,,,,,,,188.97526169999992,188.97526169999992,189.45912209999983,,,,,,2,0010,25,sentadosom,2023-06-21_18h17.51.912,face_recognition_ERP_protocol,2022.2.5,59.98444003621342,
Celebs/21_Emma_Watson_0004.jpg,non_target,0,0,0,0,0,40,40,21,,,,,,,,,,,,,,189.95952039999997,189.95952039999997,190.46016599999984,,,,,,2,0010,25,sentadosom,2023-06-21_18h17.51.912,face_recognition_ERP_protocol,2022.2.5,59.98444003621342,
Celebs/57_Jackie_Chan_0008.jpg,non_target,0,0,0,0,0,41,41,72,,,,,,,,,,,,,,190.97745009999994,190.97745009999994,191.46126759999993,,,,,,2,0010,25,sentadosom,2023-06-21_18h17.51.912,face_recognition_ERP_protocol,2022.2.5,59.98444003621342,
Celebs/37_Will_Smith_0015.jpg,non_target,0,0,0,0,0,42,42,113,,,,,,,,,,,,,,191.96162579999987,191.96162579999987,192.46234989999994,,,,,,2,0010,25,sentadosom,2023-06-21_18h17.51.912,face_recognition_ERP_protocol,2022.2.5,59.98444003621342,
Celebs/44_Will_Smith_0015.jpg,non_target,0,0,0,0,0,43,43,101,,,,,,,,,,,,,,192.9627317999998,192.9627317999998,193.46345329999986,,,,,,2,0010,25,sentadosom,2023-06-21_18h17.51.912,face_recognition_ERP_protocol,2022.2.5,59.98444003621342,
Celebs/42_Will_Smith_0012.jpg,non_target,0,0,0,0,0,44,44,64,,,,,,,,,,,,,,193.98071189999996,193.98071189999996,194.4645779,,,,,,2,0010,25,sentadosom,2023-06-21_18h17.51.912,face_recognition_ERP_protocol,2022.2.5,59.98444003621342,
Celebs/47_Johnny_Depp_0009.jpg,non_target,0,0,0,0,0,45,45,23,,,,,,,,,,,,,,194.9818068999998,194.9818068999998,195.4656683999999,,,,,,2,0010,25,sentadosom,2023-06-21_18h17.51.912,face_recognition_ERP_protocol,2022.2.5,59.98444003621342,
Celebs/49_Johnny_Depp_0013.jpg,non_target,0,0,0,0,0,46,46,33,,,,,,,,,,,,,,195.96618709999984,195.96618709999984,196.46672249999983,,,,,,2,0010,25,sentadosom,2023-06-21_18h17.51.912,face_recognition_ERP_protocol,2022.2.5,59.98444003621342,
Celebs/16_Emma_Stone_0008.jpg,non_target,0,0,0,0,0,47,47,48,,,,,,,,,,,,,,196.96730049999996,196.96730049999996,197.46788309999988,,,,,,2,0010,25,sentadosom,2023-06-21_18h17.51.912,face_recognition_ERP_protocol,2022.2.5,59.98444003621342,
Celebs/31_Neil_Patrick_Harris_0008.jpg,non_target,0,0,0,0,0,48,48,99,,,,,,,,,,,,,,197.98508159999983,197.98508159999983,198.46892409999987,,,,,,2,0010,25,sentadosom,2023-06-21_18h17.51.912,face_recognition_ERP_protocol,2022.2.5,59.98444003621342,
Celebs/50_Johnny_Depp_0008.jpg,non_target,0,0,0,0,0,49,49,84,,,,,,,,,,,,,,198.9861352999999,198.9861352999999,199.47004719999995,,,,,,2,0010,25,sentadosom,2023-06-21_18h17.51.912,face_recognition_ERP_protocol,2022.2.5,59.98444003621342,
Celebs/16_Emma_Stone_0010.jpg,non_target,0,0,0,0,0,50,50,95,,,,,,,,,,,,,,199.98732849999988,199.98732849999988,200.4544661,,,,,,2,0010,25,sentadosom,2023-06-21_18h17.51.912,face_recognition_ERP_protocol,2022.2.5,59.98444003621342,
Celebs/43_Will_Smith_0007.jpg,non_target,0,0,0,0,0,51,51,74,,,,,,,,,,,,,,200.95482329999982,200.95482329999982,201.45551509999996,,,,,,2,0010,25,sentadosom,2023-06-21_18h17.51.912,face_recognition_ERP_protocol,2022.2.5,59.98444003621342,
Celebs/20_Margot_Robbie_0006.jpg,non_target,0,0,0,0,0,52,52,35,,,,,,,,,,,,,,201.95593039999994,201.95593039999994,202.45660179999982,,,,,,2,0010,25,sentadosom,2023-06-21_18h17.51.912,face_recognition_ERP_protocol,2022.2.5,59.98444003621342,
Celebs/45_Will_Smith_0014.jpg,non_target,0,0,0,0,0,53,53,59,,,,,,,,,,,,,,202.95709639999995,202.95709639999995,203.45769259999997,,,,,,2,0010,25,sentadosom,2023-06-21_18h17.51.912,face_recognition_ERP_protocol,2022.2.5,59.98444003621342,
Celebs/21_Daniel_Radcliffe_0008.jpg,target,0,0,0,0,0,54,54,16,,,,,,,,,,,,,,203.95825909999985,203.95825909999985,204.4588065999999,,,,,,2,0010,25,sentadosom,2023-06-21_18h17.51.912,face_recognition_ERP_protocol,2022.2.5,59.98444003621342,
Celebs/18_Daniel_Radcliffe_0007.jpg,target,0,0,0,0,0,55,55,81,,,,,,,,,,,,,,204.97607349999998,204.97607349999998,205.45992179999985,,,,,,2,0010,25,sentadosom,2023-06-21_18h17.51.912,face_recognition_ERP_protocol,2022.2.5,59.98444003621342,
Celebs/32_Jim_Parsons_0010.jpg,non_target,0,0,0,0,0,56,56,98,,,,,,,,,,,,,,205.96044799999981,205.96044799999981,206.46102199999996,,,,,,2,0010,25,sentadosom,2023-06-21_18h17.51.912,face_recognition_ERP_protocol,2022.2.5,59.98444003621342,
Celebs/45_Will_Smith_0010.jpg,non_target,0,0,0,0,0,57,57,69,,,,,,,,,,,,,,206.96147999999994,206.96147999999994,207.46208679999995,,,,,,2,0010,25,sentadosom,2023-06-21_18h17.51.912,face_recognition_ERP_protocol,2022.2.5,59.98444003621342,
Celebs/22_Emma_Watson_0001.jpg,non_target,0,0,0,0,0,58,58,58,,,,,,,,,,,,,,207.97936059999984,207.97936059999984,208.46318169999995,,,,,,2,0010,25,sentadosom,2023-06-21_18h17.51.912,face_recognition_ERP_protocol,2022.2.5,59.98444003621342,
Celebs/22_Emma_Watson_0010.jpg,non_target,0,0,0,0,0,59,59,11,,,,,,,,,,,,,,208.96524339999996,208.96524339999996,209.4642429999999,,,,,,2,0010,25,sentadosom,2023-06-21_18h17.51.912,face_recognition_ERP_protocol,2022.2.5,59.98444003621342,
Celebs/47_Johnny_Depp_0003.jpg,non_target,0,0,0,0,0,60,60,9,,,,,,,,,,,,,,209.96462799999995,209.96462799999995,210.46533939999995,,,,,,2,0010,25,sentadosom,2023-06-21_18h17.51.912,face_recognition_ERP_protocol,2022.2.5,59.98444003621342,
Celebs/17_Margot_Robbie_0006.jpg,non_target,0,0,0,0,0,61,61,17,,,,,,,,,,,,,,210.96588269999984,210.96588269999984,211.4664671999999,,,,,,2,0010,25,sentadosom,2023-06-21_18h17.51.912,face_recognition_ERP_protocol,2022.2.5,59.98444003621342,
Celebs/55_Jackie_Chan_0003.jpg,non_target,0,0,0,0,0,62,62,29,,,,,,,,,,,,,,211.98366119999991,211.98366119999991,212.46755829999984,,,,,,2,0010,25,sentadosom,2023-06-21_18h17.51.912,face_recognition_ERP_protocol,2022.2.5,59.98444003621342,
Celebs/17_Daniel_Radcliffe_0007.jpg,target,0,0,0,0,0,63,63,19,,,,,,,,,,,,,,212.98475099999996,212.98475099999996,213.4686291999999,,,,,,2,0010,25,sentadosom,2023-06-21_18h17.51.912,face_recognition_ERP_protocol,2022.2.5,59.98444003621342,
Celebs/27_Scarlett_Johansson_0012.jpg,non_target,0,0,0,0,0,64,64,78,,,,,,,,,,,,,,213.9858870999999,213.9858870999999,214.46972699999992,,,,,,2,0010,25,sentadosom,2023-06-21_18h17.51.912,face_recognition_ERP_protocol,2022.2.5,59.98444003621342,
Celebs/44_Will_Smith_0007.jpg,non_target,0,0,0,0,0,65,65,65,,,,,,,,,,,,,,214.9703004999999,214.9703004999999,215.47092769999995,,,,,,2,0010,25,sentadosom,2023-06-21_18h17.51.912,face_recognition_ERP_protocol,2022.2.5,59.98444003621342,
Celebs/23_Daniel_Radcliffe_0002.jpg,target,0,0,0,0,0,66,66,77,,,,,,,,,,,,,,215.97135419999995,215.97135419999995,216.45525139999995,,,,,,2,0010,25,sentadosom,2023-06-21_18h17.51.912,face_recognition_ERP_protocol,2022.2.5,59.98444003621342,
Celebs/58_Jackie_Chan_0005.jpg,non_target,0,0,0,0,0,67,67,3,,,,,,,,,,,,,,216.9564859999998,216.9564859999998,217.4563172999999,,,,,,2,0010,25,sentadosom,2023-06-21_18h17.51.912,face_recognition_ERP_protocol,2022.2.5,59.98444003621342,
Celebs/19_Margot_Robbie_0004.jpg,non_target,0,0,0,0,0,68,68,42,,,,,,,,,,,,,,217.97361309999997,217.97361309999997,218.45747419999998,,,,,,2,0010,25,sentadosom,2023-06-21_18h17.51.912,face_recognition_ERP_protocol,2022.2.5,59.98444003621342,
Celebs/21_Emma_Stone_0002.jpg,non_target,0,0,0,0,0,69,69,103,,,,,,,,,,,,,,218.97466889999987,218.97466889999987,219.45854339999983,,,,,,2,0010,25,sentadosom,2023-06-21_18h17.51.912,face_recognition_ERP_protocol,2022.2.5,59.98444003621342,
Celebs/36_Neil_Patrick_Harris_0007.jpg,non_target,0,0,0,0,0,70,70,5,,,,,,,,,,,,,,219.95890809999992,219.95890809999992,220.45961739999984,,,,,,2,0010,25,sentadosom,2023-06-21_18h17.51.912,face_recognition_ERP_protocol,2022.2.5,59.98444003621342,
Celebs/50_Johnny_Depp_0004.jpg,non_target,0,0,0,0,0,71,71,39,,,,,,,,,,,,,,220.9768658999999,220.9768658999999,221.4607888999999,,,,,,2,0010,25,sentadosom,2023-06-21_18h17.51.912,face_recognition_ERP_protocol,2022.2.5,59.98444003621342,
Celebs/22_Margot_Robbie_0010.jpg,non_target,0,0,0,0,0,72,72,18,,,,,,,,,,,,,,221.96107169999982,221.96107169999982,222.4618142999998,,,,,,2,0010,25,sentadosom,2023-06-21_18h17.51.912,face_recognition_ERP_protocol,2022.2.5,59.98444003621342,
Celebs/55_Jackie_Chan_0008.jpg,non_target,0,0,0,0,0,73,73,92,,,,,,,,,,,,,,222.97904019999987,222.97904019999987,223.46295699999996,,,,,,2,0010,25,sentadosom,2023-06-21_18h17.51.912,face_recognition_ERP_protocol,2022.2.5,59.98444003621342,
Celebs/14_Emma_Watson_0005.jpg,non_target,0,0,0,0,0,74,74,26,,,,,,,,,,,,,,223.9632729,223.9632729,224.46407769999996,,,,,,2,0010,25,sentadosom,2023-06-21_18h17.51.912,face_recognition_ERP_protocol,2022.2.5,59.98444003621342,
Celebs/16_Margot_Robbie_0009.jpg,non_target,0,0,0,0,0,75,75,107,,,,,,,,,,,,,,224.98120139999992,224.98120139999992,225.4650505999998,,,,,,2,0010,25,sentadosom,2023-06-21_18h17.51.912,face_recognition_ERP_protocol,2022.2.5,59.98444003621342,
Celebs/16_Emma_Stone_0014.jpg,non_target,0,0,0,0,0,76,76,40,,,,,,,,,,,,,,225.96564979999994,225.96564979999994,226.46614809999983,,,,,,2,0010,25,sentadosom,2023-06-21_18h17.51.912,face_recognition_ERP_protocol,2022.2.5,59.98444003621342,
Celebs/22_Emma_Watson_0003.jpg,non_target,0,0,0,0,0,77,77,91,,,,,,,,,,,,,,226.966547,226.966547,227.4672526999998,,,,,,2,0010,25,sentadosom,2023-06-21_18h17.51.912,face_recognition_ERP_protocol,2022.2.5,59.98444003621342,
Celebs/26_Scarlett_Johansson_0003.jpg,non_target,0,0,0,0,0,78,78,105,,,,,,,,,,,,,,227.96760359999985,227.96760359999985,228.4685692999999,,,,,,2,0010,25,sentadosom,2023-06-21_18h17.51.912,face_recognition_ERP_protocol,2022.2.5,59.98444003621342,
Celebs/24_Emma_Stone_0015.jpg,non_target,0,0,0,0,0,79,79,57,,,,,,,,,,,,,,228.9855177999998,228.9855177999998,229.46951679999984,,,,,,2,0010,25,sentadosom,2023-06-21_18h17.51.912,face_recognition_ERP_protocol,2022.2.5,59.98444003621342,
Celebs/40_Jim_Parsons_0004.jpg,non_target,0,0,0,0,0,80,80,73,,,,,,,,,,,,,,229.98668369999996,229.98668369999996,230.4705508999998,,,,,,2,0010,25,sentadosom,2023-06-21_18h17.51.912,face_recognition_ERP_protocol,2022.2.5,59.98444003621342,
Celebs/38_Jim_Parsons_0003.jpg,non_target,0,0,0,0,0,81,81,53,,,,,,,,,,,,,,230.9544191,230.9544191,231.45499969999992,,,,,,2,0010,25,sentadosom,2023-06-21_18h17.51.912,face_recognition_ERP_protocol,2022.2.5,59.98444003621342,
Celebs/14_Emma_Watson_0015.jpg,non_target,0,0,0,0,0,82,82,56,,,,,,,,,,,,,,231.9553368999998,231.9553368999998,232.45606039999984,,,,,,2,0010,25,sentadosom,2023-06-21_18h17.51.912,face_recognition_ERP_protocol,2022.2.5,59.98444003621342,
Celebs/24_Daniel_Radcliffe_0017.jpg,target,0,0,0,0,0,83,83,71,,,,,,,,,,,,,,232.97341329999995,232.97341329999995,233.4571497999998,,,,,,2,0010,25,sentadosom,2023-06-21_18h17.51.912,face_recognition_ERP_protocol,2022.2.5,59.98444003621342,
Celebs/35_Neil_Patrick_Harris_0009.jpg,non_target,0,0,0,0,0,84,84,87,,,,,,,,,,,,,,233.97445279999988,233.97445279999988,234.4583505999999,,,,,,2,0010,25,sentadosom,2023-06-21_18h17.51.912,face_recognition_ERP_protocol,2022.2.5,59.98444003621342,
Celebs/43_Will_Smith_0010.jpg,non_target,0,0,0,0,0,85,85,22,,,,,,,,,,,,,,234.97551799999997,234.97551799999997,235.4593324,,,,,,2,0010,25,sentadosom,2023-06-21_18h17.51.912,face_recognition_ERP_protocol,2022.2.5,59.98444003621342,
Celebs/33_Jim_Parsons_0011.jpg,non_target,0,0,0,0,0,86,86,34,,,,,,,,,,,,,,235.95984679999992,235.95984679999992,236.46042109999985,,,,,,2,0010,25,sentadosom,2023-06-21_18h17.51.912,face_recognition_ERP_protocol,2022.2.5,59.98444003621342,
Celebs/38_Neil_Patrick_Harris_0006.jpg,non_target,0,0,0,0,0,87,87,31,,,,,,,,,,,,,,236.9611210999999,236.9611210999999,237.46152759999995,,,,,,2,0010,25,sentadosom,2023-06-21_18h17.51.912,face_recognition_ERP_protocol,2022.2.5,59.98444003621342,
Celebs/39_Jim_Parsons_0001.jpg,non_target,0,0,0,0,0,88,88,49,,,,,,,,,,,,,,237.97886329999983,237.97886329999983,238.46262649999994,,,,,,2,0010,25,sentadosom,2023-06-21_18h17.51.912,face_recognition_ERP_protocol,2022.2.5,59.98444003621342,
Celebs/20_Scarlett_Johansson_0011.jpg,non_target,0,0,0,0,0,89,89,109,,,,,,,,,,,,,,238.9645372,238.9645372,239.4637432999998,,,,,,2,0010,25,sentadosom,2023-06-21_18h17.51.912,face_recognition_ERP_protocol,2022.2.5,59.98444003621342,
Celebs/48_Johnny_Depp_0001.jpg,non_target,0,0,0,0,0,90,90,106,,,,,,,,,,,,,,239.98095369999987,239.98095369999987,240.4647912999999,,,,,,2,0010,25,sentadosom,2023-06-21_18h17.51.912,face_recognition_ERP_protocol,2022.2.5,59.98444003621342,
Celebs/32_Jim_Parsons_0018.jpg,non_target,0,0,0,0,0,91,91,46,,,,,,,,,,,,,,240.96516399999996,240.96516399999996,241.46586879999995,,,,,,2,0010,25,sentadosom,2023-06-21_18h17.51.912,face_recognition_ERP_protocol,2022.2.5,59.98444003621342,
Celebs/52_Jackie_Chan_0002.jpg,non_target,0,0,0,0,0,92,92,68,,,,,,,,,,,,,,241.96735569999987,241.96735569999987,242.4670041999998,,,,,,2,0010,25,sentadosom,2023-06-21_18h17.51.912,face_recognition_ERP_protocol,2022.2.5,59.98444003621342,
Celebs/34_Neil_Patrick_Harris_0007.jpg,non_target,0,0,0,0,0,93,93,117,,,,,,,,,,,,,,242.9673406999998,242.9673406999998,243.46817709999982,,,,,,2,0010,25,sentadosom,2023-06-21_18h17.51.912,face_recognition_ERP_protocol,2022.2.5,59.98444003621342,
Celebs/17_Emma_Watson_0006.jpg,non_target,0,0,0,0,0,94,94,90,,,,,,,,,,,,,,243.98526879999986,243.98526879999986,244.46918329999994,,,,,,2,0010,25,sentadosom,2023-06-21_18h17.51.912,face_recognition_ERP_protocol,2022.2.5,59.98444003621342,
Celebs/36_Jim_Parsons_0011.jpg,non_target,0,0,0,0,0,95,95,86,,,,,,,,,,,,,,244.9697190999998,244.9697190999998,245.4702815999999,,,,,,2,0010,25,sentadosom,2023-06-21_18h17.51.912,face_recognition_ERP_protocol,2022.2.5,59.98444003621342,
Celebs/36_Neil_Patrick_Harris_0010.jpg,non_target,0,0,0,0,0,96,96,79,,,,,,,,,,,,,,245.9708968,245.9708968,246.45466299999998,,,,,,2,0010,25,sentadosom,2023-06-21_18h17.51.912,face_recognition_ERP_protocol,2022.2.5,59.98444003621342,
Celebs/20_Emma_Watson_0007.jpg,non_target,0,0,0,0,0,97,97,96,,,,,,,,,,,,,,246.95611519999989,246.95611519999989,247.45575019999978,,,,,,2,0010,25,sentadosom,2023-06-21_18h17.51.912,face_recognition_ERP_protocol,2022.2.5,59.98444003621342,
Celebs/39_Jim_Parsons_0008.jpg,non_target,0,0,0,0,0,98,98,89,,,,,,,,,,,,,,247.9563318999999,247.9563318999999,248.45687739999994,,,,,,2,0010,25,sentadosom,2023-06-21_18h17.51.912,face_recognition_ERP_protocol,2022.2.5,59.98444003621342,
Celebs/50_Johnny_Depp_0018.jpg,non_target,0,0,0,0,0,99,99,24,,,,,,,,,,,,,,248.9573656,248.9573656,249.45795669999984,,,,,,2,0010,25,sentadosom,2023-06-21_18h17.51.912,face_recognition_ERP_protocol,2022.2.5,59.98444003621342,
Celebs/45_Johnny_Depp_0003.jpg,non_target,0,0,0,0,0,100,100,108,,,,,,,,,,,,,,249.9588174999999,249.9588174999999,250.45899799999984,,,,,,2,0010,25,sentadosom,2023-06-21_18h17.51.912,face_recognition_ERP_protocol,2022.2.5,59.98444003621342,
Celebs/50_Jackie_Chan_0012.jpg,non_target,0,0,0,0,0,101,101,43,,,,,,,,,,,,,,250.95984019999992,250.95984019999992,251.4601588999999,,,,,,2,0010,25,sentadosom,2023-06-21_18h17.51.912,face_recognition_ERP_protocol,2022.2.5,59.98444003621342,
Celebs/51_Jackie_Chan_0006.jpg,non_target,0,0,0,0,0,102,102,97,,,,,,,,,,,,,,251.9614340999999,251.9614340999999,252.46122589999982,,,,,,2,0010,25,sentadosom,2023-06-21_18h17.51.912,face_recognition_ERP_protocol,2022.2.5,59.98444003621342,
Celebs/34_Neil_Patrick_Harris_0004.jpg,non_target,0,0,0,0,0,103,103,104,,,,,,,,,,,,,,252.96159549999993,252.96159549999993,253.46232729999997,,,,,,2,0010,25,sentadosom,2023-06-21_18h17.51.912,face_recognition_ERP_protocol,2022.2.5,59.98444003621342,
Celebs/29_Scarlett_Johansson_0016.jpg,non_target,0,0,0,0,0,104,104,2,,,,,,,,,,,,,,253.97959379999998,253.97959379999998,254.46342069999992,,,,,,2,0010,25,sentadosom,2023-06-21_18h17.51.912,face_recognition_ERP_protocol,2022.2.5,59.98444003621342,
Celebs/18_Emma_Watson_0004.jpg,non_target,0,0,0,0,0,105,105,75,,,,,,,,,,,,,,254.98064649999992,254.98064649999992,255.46453499999984,,,,,,2,0010,25,sentadosom,2023-06-21_18h17.51.912,face_recognition_ERP_protocol,2022.2.5,59.98444003621342,
Celebs/54_Jackie_Chan_0014.jpg,non_target,0,0,0,0,0,106,106,111,,,,,,,,,,,,,,255.96510489999991,255.96510489999991,256.4656109,,,,,,2,0010,25,sentadosom,2023-06-21_18h17.51.912,face_recognition_ERP_protocol,2022.2.5,59.98444003621342,
Celebs/39_Jim_Parsons_0004.jpg,non_target,0,0,0,0,0,107,107,88,,,,,,,,,,,,,,256.9669055999998,256.9669055999998,257.46671089999995,,,,,,2,0010,25,sentadosom,2023-06-21_18h17.51.912,face_recognition_ERP_protocol,2022.2.5,59.98444003621342,
Celebs/24_Scarlett_Johansson_0011.jpg,non_target,0,0,0,0,0,108,108,100,,,,,,,,,,,,,,257.9839616999998,257.9839616999998,258.46787059999997,,,,,,2,0010,25,sentadosom,2023-06-21_18h17.51.912,face_recognition_ERP_protocol,2022.2.5,59.98444003621342,
Celebs/26_Scarlett_Johansson_0008.jpg,non_target,0,0,0,0,0,109,109,47,,,,,,,,,,,,,,258.96837779999987,258.96837779999987,259.468885,,,,,,2,0010,25,sentadosom,2023-06-21_18h17.51.912,face_recognition_ERP_protocol,2022.2.5,59.98444003621342,
Celebs/17_Margot_Robbie_0014.jpg,non_target,0,0,0,0,0,110,110,114,,,,,,,,,,,,,,259.9861702999999,259.9861702999999,260.4699824999998,,,,,,2,0010,25,sentadosom,2023-06-21_18h17.51.912,face_recognition_ERP_protocol,2022.2.5,59.98444003621342,
Celebs/40_Jim_Parsons_0015.jpg,non_target,0,0,0,0,0,111,111,45,,,,,,,,,,,,,,260.970513,260.970513,261.45440729999996,,,,,,2,0010,25,sentadosom,2023-06-21_18h17.51.912,face_recognition_ERP_protocol,2022.2.5,59.98444003621342,
Celebs/14_Emma_Watson_0008.jpg,non_target,0,0,0,0,0,112,112,36,,,,,,,,,,,,,,261.95478839999987,261.95478839999987,262.4554685999999,,,,,,2,0010,25,sentadosom,2023-06-21_18h17.51.912,face_recognition_ERP_protocol,2022.2.5,59.98444003621342,
Celebs/47_Johnny_Depp_0004.jpg,non_target,0,0,0,0,0,113,113,76,,,,,,,,,,,,,,262.95588999999995,262.95588999999995,263.4566027999999,,,,,,2,0010,25,sentadosom,2023-06-21_18h17.51.912,face_recognition_ERP_protocol,2022.2.5,59.98444003621342,
Celebs/33_Neil_Patrick_Harris_0011.jpg,non_target,0,0,0,0,0,114,114,112,,,,,,,,,,,,,,263.9572613999999,263.9572613999999,264.45770679999987,,,,,,2,0010,25,sentadosom,2023-06-21_18h17.51.912,face_recognition_ERP_protocol,2022.2.5,59.98444003621342,
Celebs/21_Daniel_Radcliffe_0002.jpg,target,0,0,0,0,0,115,115,60,,,,,,,,,,,,,,264.9583363999998,264.9583363999998,265.4589368999998,,,,,,2,0010,25,sentadosom,2023-06-21_18h17.51.912,face_recognition_ERP_protocol,2022.2.5,59.98444003621342,
Celebs/16_Emma_Stone_0012.jpg,non_target,0,0,0,0,0,116,116,70,,,,,,,,,,,,,,265.9592042999998,265.9592042999998,266.4598804999998,,,,,,2,0010,25,sentadosom,2023-06-21_18h17.51.912,face_recognition_ERP_protocol,2022.2.5,59.98444003621342,
Celebs/18_Emma_Stone_0016.jpg,non_target,0,0,0,0,0,117,117,52,,,,,,,,,,,,,,266.96037239999987,266.96037239999987,267.4608864999998,,,,,,2,0010,25,sentadosom,2023-06-21_18h17.51.912,face_recognition_ERP_protocol,2022.2.5,59.98444003621342,
Celebs/50_Johnny_Depp_0010.jpg,non_target,0,0,0,0,0,118,118,115,,,,,,,,,,,,,,267.9614377999999,267.9614377999999,268.4620923,,,,,,2,0010,25,sentadosom,2023-06-21_18h17.51.912,face_recognition_ERP_protocol,2022.2.5,59.98444003621342,
Celebs/37_Neil_Patrick_Harris_0010.jpg,non_target,0,0,0,0,0,119,119,93,,,,,,,,,,,,,,268.96353909999993,268.96353909999993,269.46322299999997,,,,,,2,0010,25,sentadosom,2023-06-21_18h17.51.912,face_recognition_ERP_protocol,2022.2.5,59.98444003621342,
Celebs/32_Jim_Parsons_0018.jpg,non_target,1,0,1,0,0,0,0,46,,,,,,,,,,,,,,285.5521442999998,285.5521442999998,286.0186214999999,269.9821588,269.9821588,space,15.499545500000067,,2,0010,25,sentadosom,2023-06-21_18h17.51.912,face_recognition_ERP_protocol,2022.2.5,59.98444003621342,
Celebs/21_Daniel_Radcliffe_0008.jpg,target,1,0,1,0,0,1,1,16,,,,,,,,,,,,,,286.51995079999983,286.51995079999983,287.01974989999985,,,,,,2,0010,25,sentadosom,2023-06-21_18h17.51.912,face_recognition_ERP_protocol,2022.2.5,59.98444003621342,
Celebs/29_Scarlett_Johansson_0016.jpg,non_target,1,0,1,0,0,2,2,2,,,,,,,,,,,,,,287.52104269999995,287.52104269999995,288.0208134999998,,,,,,2,0010,25,sentadosom,2023-06-21_18h17.51.912,face_recognition_ERP_protocol,2022.2.5,59.98444003621342,
Celebs/33_Neil_Patrick_Harris_0011.jpg,non_target,1,0,1,0,0,3,3,112,,,,,,,,,,,,,,288.5221279,288.5221279,289.02194639999993,,,,,,2,0010,25,sentadosom,2023-06-21_18h17.51.912,face_recognition_ERP_protocol,2022.2.5,59.98444003621342,
Celebs/48_Johnny_Depp_0001.jpg,non_target,1,0,1,0,0,4,4,106,,,,,,,,,,,,,,289.523189,289.523189,290.02301569999986,,,,,,2,0010,25,sentadosom,2023-06-21_18h17.51.912,face_recognition_ERP_protocol,2022.2.5,59.98444003621342,
Celebs/16_Emma_Stone_0008.jpg,non_target,1,0,1,0,0,5,5,48,,,,,,,,,,,,,,290.52433559999986,290.52433559999986,291.02410069999996,,,,,,2,0010,25,sentadosom,2023-06-21_18h17.51.912,face_recognition_ERP_protocol,2022.2.5,59.98444003621342,
Celebs/14_Emma_Watson_0008.jpg,non_target,1,0,1,0,0,6,6,36,,,,,,,,,,,,,,291.5253800999999,291.5253800999999,292.02516449999985,,,,,,2,0010,25,sentadosom,2023-06-21_18h17.51.912,face_recognition_ERP_protocol,2022.2.5,59.98444003621342,
Celebs/16_Emma_Stone_0014.jpg,non_target,1,0,1,0,0,7,7,40,,,,,,,,,,,,,,292.5264924999999,292.5264924999999,293.0262966999999,,,,,,2,0010,25,sentadosom,2023-06-21_18h17.51.912,face_recognition_ERP_protocol,2022.2.5,59.98444003621342,
Celebs/50_Johnny_Depp_0008.jpg,non_target,1,0,1,0,0,8,8,84,,,,,,,,,,,,,,293.5276580999998,293.5276580999998,294.0273553999998,,,,,,2,0010,25,sentadosom,2023-06-21_18h17.51.912,face_recognition_ERP_protocol,2022.2.5,59.98444003621342,
Celebs/14_Emma_Watson_0005.jpg,non_target,1,0,1,0,0,9,9,26,,,,,,,,,,,,,,294.5286959,294.5286959,295.02849979999996,,,,,,2,0010,25,sentadosom,2023-06-21_18h17.51.912,face_recognition_ERP_protocol,2022.2.5,59.98444003621342,
Celebs/39_Neil_Patrick_Harris_0001.jpg,non_target,1,0,1,0,0,10,10,4,,,,,,,,,,,,,,295.5297839,295.5297839,296.0295772999998,,,,,,2,0010,25,sentadosom,2023-06-21_18h17.51.912,face_recognition_ERP_protocol,2022.2.5,59.98444003621342,
Celebs/39_Jim_Parsons_0008.jpg,non_target,1,0,1,0,0,11,11,89,,,,,,,,,,,,,,296.5308878999999,296.5308878999999,297.0306463999998,,,,,,2,0010,25,sentadosom,2023-06-21_18h17.51.912,face_recognition_ERP_protocol,2022.2.5,59.98444003621342,
Celebs/22_Emma_Watson_0001.jpg,non_target,1,0,1,0,0,12,12,58,,,,,,,,,,,,,,297.5320287999998,297.5320287999998,298.0317287999999,,,,,,2,0010,25,sentadosom,2023-06-21_18h17.51.912,face_recognition_ERP_protocol,2022.2.5,59.98444003621342,
Celebs/28_Scarlett_Johansson_0005.jpg,non_target,1,0,1,0,0,13,13,50,,,,,,,,,,,,,,298.53309449999983,298.53309449999983,299.0328259999999,,,,,,2,0010,25,sentadosom,2023-06-21_18h17.51.912,face_recognition_ERP_protocol,2022.2.5,59.98444003621342,
Celebs/38_Jim_Parsons_0003.jpg,non_target,1,0,1,0,0,14,14,53,,,,,,,,,,,,,,299.5341575,299.5341575,300.0172359999999,,,,,,2,0010,25,sentadosom,2023-06-21_18h17.51.912,face_recognition_ERP_protocol,2022.2.5,59.98444003621342,
Celebs/57_Jackie_Chan_0008.jpg,non_target,1,0,1,0,0,15,15,72,,,,,,,,,,,,,,300.51857989999985,300.51857989999985,301.0183454999999,,,,,,2,0010,25,sentadosom,2023-06-21_18h17.51.912,face_recognition_ERP_protocol,2022.2.5,59.98444003621342,
Celebs/47_Johnny_Depp_0004.jpg,non_target,1,0,1,0,0,16,16,76,,,,,,,,,,,,,,301.5196615,301.5196615,302.01943299999994,,,,,,2,0010,25,sentadosom,2023-06-21_18h17.51.912,face_recognition_ERP_protocol,2022.2.5,59.98444003621342,
Celebs/49_Johnny_Depp_0013.jpg,non_target,1,0,1,0,0,17,17,33,,,,,,,,,,,,,,302.52075119999995,302.52075119999995,303.0205159999998,,,,,,2,0010,25,sentadosom,2023-06-21_18h17.51.912,face_recognition_ERP_protocol,2022.2.5,59.98444003621342,
Celebs/21_Daniel_Radcliffe_0012.jpg,target,1,0,1,0,0,18,18,8,,,,,,,,,,,,,,303.52185229999986,303.52185229999986,304.0216185999998,,,,,,2,0010,25,sentadosom,2023-06-21_18h17.51.912,face_recognition_ERP_protocol,2022.2.5,59.98444003621342,
Celebs/21_Margot_Robbie_0003.jpg,non_target,1,0,1,0,0,19,19,27,,,,,,,,,,,,,,304.52295989999993,304.52295989999993,305.02271129999986,,,,,,2,0010,25,sentadosom,2023-06-21_18h17.51.912,face_recognition_ERP_protocol,2022.2.5,59.98444003621342,
Celebs/50_Johnny_Depp_0010.jpg,non_target,1,0,1,0,0,20,20,115,,,,,,,,,,,,,,305.52401429999986,305.52401429999986,306.02379629999996,,,,,,2,0010,25,sentadosom,2023-06-21_18h17.51.912,face_recognition_ERP_protocol,2022.2.5,59.98444003621342,
Celebs/48_Johnny_Depp_0003.jpg,non_target,1,0,1,0,0,21,21,55,,,,,,,,,,,,,,306.525136,306.525136,307.02490549999993,,,,,,2,0010,25,sentadosom,2023-06-21_18h17.51.912,face_recognition_ERP_protocol,2022.2.5,59.98444003621342,
Celebs/45_Johnny_Depp_0003.jpg,non_target,1,0,1,0,0,22,22,108,,,,,,,,,,,,,,307.52624479999986,307.52624479999986,308.02599629999986,,,,,,2,0010,25,sentadosom,2023-06-21_18h17.51.912,face_recognition_ERP_protocol,2022.2.5,59.98444003621342,
Celebs/23_Daniel_Radcliffe_0010.jpg,target,1,0,1,0,0,23,23,15,,,,,,,,,,,,,,308.5272998999999,308.5272998999999,309.0270756,,,,,,2,0010,25,sentadosom,2023-06-21_18h17.51.912,face_recognition_ERP_protocol,2022.2.5,59.98444003621342,
Celebs/44_Will_Smith_0015.jpg,non_target,1,0,1,0,0,24,24,101,,,,,,,,,,,,,,309.5283998,309.5283998,310.02818049999996,,,,,,2,0010,25,sentadosom,2023-06-21_18h17.51.912,face_recognition_ERP_protocol,2022.2.5,59.98444003621342,
Celebs/24_Scarlett_Johansson_0001.jpg,non_target,1,0,1,0,0,25,25,10,,,,,,,,,,,,,,310.5295397,310.5295397,311.0292548,,,,,,2,0010,25,sentadosom,2023-06-21_18h17.51.912,face_recognition_ERP_protocol,2022.2.5,59.98444003621342,
Celebs/36_Neil_Patrick_Harris_0010.jpg,non_target,1,0,1,0,0,26,26,79,,,,,,,,,,,,,,311.53066339999987,311.53066339999987,312.03041959999996,,,,,,2,0010,25,sentadosom,2023-06-21_18h17.51.912,face_recognition_ERP_protocol,2022.2.5,59.98444003621342,
Celebs/39_Neil_Patrick_Harris_0010.jpg,non_target,1,0,1,0,0,27,27,94,,,,,,,,,,,,,,312.5317204999999,312.5317204999999,313.03150489999985,,,,,,2,0010,25,sentadosom,2023-06-21_18h17.51.912,face_recognition_ERP_protocol,2022.2.5,59.98444003621342,
Celebs/22_Emma_Watson_0010.jpg,non_target,1,0,1,0,0,28,28,11,,,,,,,,,,,,,,313.53277749999984,313.53277749999984,314.03278449999993,,,,,,2,0010,25,sentadosom,2023-06-21_18h17.51.912,face_recognition_ERP_protocol,2022.2.5,59.98444003621342,
Celebs/50_Johnny_Depp_0018.jpg,non_target,1,0,1,0,0,29,29,24,,,,,,,,,,,,,,314.53389219999985,314.53389219999985,315.03372679999984,,,,,,2,0010,25,sentadosom,2023-06-21_18h17.51.912,face_recognition_ERP_protocol,2022.2.5,59.98444003621342,
Celebs/43_Will_Smith_0007.jpg,non_target,1,0,1,0,0,30,30,74,,,,,,,,,,,,,,315.5182923,315.5182923,316.0180235999999,,,,,,2,0010,25,sentadosom,2023-06-21_18h17.51.912,face_recognition_ERP_protocol,2022.2.5,59.98444003621342,
Celebs/16_Margot_Robbie_0009.jpg,non_target,1,0,1,0,0,31,31,107,,,,,,,,,,,,,,316.5193731999998,316.5193731999998,317.0191940999998,,,,,,2,0010,25,sentadosom,2023-06-21_18h17.51.912,face_recognition_ERP_protocol,2022.2.5,59.98444003621342,
Celebs/58_Jackie_Chan_0005.jpg,non_target,1,0,1,0,0,32,32,3,,,,,,,,,,,,,,317.52046889999997,317.52046889999997,318.0202373999998,,,,,,2,0010,25,sentadosom,2023-06-21_18h17.51.912,face_recognition_ERP_protocol,2022.2.5,59.98444003621342,
Celebs/23_Daniel_Radcliffe_0002.jpg,target,1,0,1,0,0,33,33,77,,,,,,,,,,,,,,318.52155679999987,318.52155679999987,319.02130869999996,,,,,,2,0010,25,sentadosom,2023-06-21_18h17.51.912,face_recognition_ERP_protocol,2022.2.5,59.98444003621342,
Celebs/24_Emma_Stone_0015.jpg,non_target,1,0,1,0,0,34,34,57,,,,,,,,,,,,,,319.5226760999999,319.5226760999999,320.02249459999985,,,,,,2,0010,25,sentadosom,2023-06-21_18h17.51.912,face_recognition_ERP_protocol,2022.2.5,59.98444003621342,
Celebs/36_Neil_Patrick_Harris_0007.jpg,non_target,1,0,1,0,0,35,35,5,,,,,,,,,,,,,,320.5237527999998,320.5237527999998,321.0235713999998,,,,,,2,0010,25,sentadosom,2023-06-21_18h17.51.912,face_recognition_ERP_protocol,2022.2.5,59.98444003621342,
Celebs/24_Scarlett_Johansson_0011.jpg,non_target,1,0,1,0,0,36,36,100,,,,,,,,,,,,,,321.52482399999985,321.52482399999985,322.02461719999997,,,,,,2,0010,25,sentadosom,2023-06-21_18h17.51.912,face_recognition_ERP_protocol,2022.2.5,59.98444003621342,
Celebs/43_Will_Smith_0006.jpg,non_target,1,0,1,0,0,37,37,61,,,,,,,,,,,,,,322.5259435999999,322.5259435999999,323.0256872,,,,,,2,0010,25,sentadosom,2023-06-21_18h17.51.912,face_recognition_ERP_protocol,2022.2.5,59.98444003621342,
Celebs/36_Jim_Parsons_0011.jpg,non_target,1,0,1,0,0,38,38,86,,,,,,,,,,,,,,323.5269916999998,323.5269916999998,324.02679379999995,,,,,,2,0010,25,sentadosom,2023-06-21_18h17.51.912,face_recognition_ERP_protocol,2022.2.5,59.98444003621342,
Celebs/17_Emma_Watson_0006.jpg,non_target,1,0,1,0,0,39,39,90,,,,,,,,,,,,,,324.52812229999995,324.52812229999995,325.0278876,,,,,,2,0010,25,sentadosom,2023-06-21_18h17.51.912,face_recognition_ERP_protocol,2022.2.5,59.98444003621342,
Celebs/39_Jim_Parsons_0001.jpg,non_target,1,0,1,0,0,40,40,49,,,,,,,,,,,,,,325.52924129999997,325.52924129999997,326.02902419999987,,,,,,2,0010,25,sentadosom,2023-06-21_18h17.51.912,face_recognition_ERP_protocol,2022.2.5,59.98444003621342,
Celebs/37_Neil_Patrick_Harris_0010.jpg,non_target,1,0,1,0,0,41,41,93,,,,,,,,,,,,,,326.53030379999996,326.53030379999996,327.03007019999995,,,,,,2,0010,25,sentadosom,2023-06-21_18h17.51.912,face_recognition_ERP_protocol,2022.2.5,59.98444003621342,
Celebs/26_Scarlett_Johansson_0003.jpg,non_target,1,0,1,0,0,42,42,105,,,,,,,,,,,,,,327.5313864,327.5313864,328.0312079999999,,,,,,2,0010,25,sentadosom,2023-06-21_18h17.51.912,face_recognition_ERP_protocol,2022.2.5,59.98444003621342,
Celebs/20_Emma_Watson_0007.jpg,non_target,1,0,1,0,0,43,43,96,,,,,,,,,,,,,,328.5325049999999,328.5325049999999,329.0323220999999,,,,,,2,0010,25,sentadosom,2023-06-21_18h17.51.912,face_recognition_ERP_protocol,2022.2.5,59.98444003621342,
Celebs/39_Jim_Parsons_0010.jpg,non_target,1,0,1,0,0,44,44,0,,,,,,,,,,,,,,329.53357719999985,329.53357719999985,330.0333389,,,,,,2,0010,25,sentadosom,2023-06-21_18h17.51.912,face_recognition_ERP_protocol,2022.2.5,59.98444003621342,
Celebs/44_Will_Smith_0007.jpg,non_target,1,0,1,0,0,45,45,65,,,,,,,,,,,,,,330.5346851999998,330.5346851999998,331.01776189999987,,,,,,2,0010,25,sentadosom,2023-06-21_18h17.51.912,face_recognition_ERP_protocol,2022.2.5,59.98444003621342,
Celebs/44_Will_Smith_0006.jpg,non_target,1,0,1,0,0,46,46,41,,,,,,,,,,,,,,331.51913379999996,331.51913379999996,332.01884329999984,,,,,,2,0010,25,sentadosom,2023-06-21_18h17.51.912,face_recognition_ERP_protocol,2022.2.5,59.98444003621342,
Celebs/23_Emma_Stone_0014.jpg,non_target,1,0,1,0,0,47,47,12,,,,,,,,,,,,,,332.52018439999983,332.52018439999983,333.01996889999987,,,,,,2,0010,25,sentadosom,2023-06-21_18h17.51.912,face_recognition_ERP_protocol,2022.2.5,59.98444003621342,
Celebs/22_Emma_Stone_0013.jpg,non_target,1,0,1,0,0,48,48,1,,,,,,,,,,,,,,333.5212927,333.5212927,334.0210577999999,,,,,,2,0010,25,sentadosom,2023-06-21_18h17.51.912,face_recognition_ERP_protocol,2022.2.5,59.98444003621342,
Celebs/34_Neil_Patrick_Harris_0004.jpg,non_target,1,0,1,0,0,49,49,104,,,,,,,,,,,,,,334.5223596999999,334.5223596999999,335.0221714999998,,,,,,2,0010,25,sentadosom,2023-06-21_18h17.51.912,face_recognition_ERP_protocol,2022.2.5,59.98444003621342,
Celebs/21_Daniel_Radcliffe_0002.jpg,target,1,0,1,0,0,50,50,60,,,,,,,,,,,,,,335.52349619999995,335.52349619999995,336.0232709999998,,,,,,2,0010,25,sentadosom,2023-06-21_18h17.51.912,face_recognition_ERP_protocol,2022.2.5,59.98444003621342,
Celebs/17_Margot_Robbie_0006.jpg,non_target,1,0,1,0,0,51,51,17,,,,,,,,,,,,,,336.5246289999998,336.5246289999998,337.0243651999999,,,,,,2,0010,25,sentadosom,2023-06-21_18h17.51.912,face_recognition_ERP_protocol,2022.2.5,59.98444003621342,
Celebs/39_Jim_Parsons_0004.jpg,non_target,1,0,1,0,0,52,52,88,,,,,,,,,,,,,,337.5256732999999,337.5256732999999,338.0254267999999,,,,,,2,0010,25,sentadosom,2023-06-21_18h17.51.912,face_recognition_ERP_protocol,2022.2.5,59.98444003621342,
Celebs/40_Will_Smith_0012.jpg,non_target,1,0,1,0,0,53,53,110,,,,,,,,,,,,,,338.5267947,338.5267947,339.0265465,,,,,,2,0010,25,sentadosom,2023-06-21_18h17.51.912,face_recognition_ERP_protocol,2022.2.5,59.98444003621342,
Celebs/45_Will_Smith_0010.jpg,non_target,1,0,1,0,0,54,54,69,,,,,,,,,,,,,,339.5278106999999,339.5278106999999,340.02764619999994,,,,,,2,0010,25,sentadosom,2023-06-21_18h17.51.912,face_recognition_ERP_protocol,2022.2.5,59.98444003621342,
Celebs/21_Emma_Stone_0003.jpg,non_target,1,0,1,0,0,55,55,25,,,,,,,,,,,,,,340.5289521999998,340.5289521999998,341.028777,,,,,,2,0010,25,sentadosom,2023-06-21_18h17.51.912,face_recognition_ERP_protocol,2022.2.5,59.98444003621342,
Celebs/15_Margot_Robbie_0012.jpg,non_target,1,0,1,0,0,56,56,82,,,,,,,,,,,,,,341.5300348999999,341.5300348999999,342.0298346999998,,,,,,2,0010,25,sentadosom,2023-06-21_18h17.51.912,face_recognition_ERP_protocol,2022.2.5,59.98444003621342,
Celebs/16_Emma_Stone_0010.jpg,non_target,1,0,1,0,0,57,57,95,,,,,,,,,,,,,,342.5310903999998,342.5310903999998,343.03097949999983,,,,,,2,0010,25,sentadosom,2023-06-21_18h17.51.912,face_recognition_ERP_protocol,2022.2.5,59.98444003621342,
Celebs/50_Johnny_Depp_0004.jpg,non_target,1,0,1,0,0,58,58,39,,,,,,,,,,,,,,343.5322234999999,343.5322234999999,344.03203129999997,,,,,,2,0010,25,sentadosom,2023-06-21_18h17.51.912,face_recognition_ERP_protocol,2022.2.5,59.98444003621342,
Celebs/42_Will_Smith_0012.jpg,non_target,1,0,1,0,0,59,59,64,,,,,,,,,,,,,,344.5333569999998,344.5333569999998,345.0331242999998,,,,,,2,0010,25,sentadosom,2023-06-21_18h17.51.912,face_recognition_ERP_protocol,2022.2.5,59.98444003621342,
Celebs/18_Daniel_Radcliffe_0008.jpg,target,1,0,1,0,0,60,60,28,,,,,,,,,,,,,,345.5344143,345.5344143,346.01753889999986,,,,,,2,0010,25,sentadosom,2023-06-21_18h17.51.912,face_recognition_ERP_protocol,2022.2.5,59.98444003621342,
Celebs/45_Will_Smith_0014.jpg,non_target,1,0,1,0,0,61,61,59,,,,,,,,,,,,,,346.51881179999987,346.51881179999987,347.01856899999984,,,,,,2,0010,25,sentadosom,2023-06-21_18h17.51.912,face_recognition_ERP_protocol,2022.2.5,59.98444003621342,
Celebs/21_Daniel_Radcliffe_0009.jpg,target,1,0,1,0,0,62,62,83,,,,,,,,,,,,,,347.5198863999999,347.5198863999999,348.0196615,,,,,,2,0010,25,sentadosom,2023-06-21_18h17.51.912,face_recognition_ERP_protocol,2022.2.5,59.98444003621342,
Celebs/20_Margot_Robbie_0004.jpg,non_target,1,0,1,0,0,63,63,116,,,,,,,,,,,,,,348.5210141,348.5210141,349.0207386999998,,,,,,2,0010,25,sentadosom,2023-06-21_18h17.51.912,face_recognition_ERP_protocol,2022.2.5,59.98444003621342,
Celebs/31_Neil_Patrick_Harris_0008.jpg,non_target,1,0,1,0,0,64,64,99,,,,,,,,,,,,,,349.5220743,349.5220743,350.0218819999998,,,,,,2,0010,25,sentadosom,2023-06-21_18h17.51.912,face_recognition_ERP_protocol,2022.2.5,59.98444003621342,
Celebs/34_Neil_Patrick_Harris_0007.jpg,non_target,1,0,1,0,0,65,65,117,,,,,,,,,,,,,,350.52317289999996,350.52317289999996,351.0229606999999,,,,,,2,0010,25,sentadosom,2023-06-21_18h17.51.912,face_recognition_ERP_protocol,2022.2.5,59.98444003621342,
Celebs/14_Emma_Watson_0013.jpg,non_target,1,0,1,0,0,66,66,20,,,,,,,,,,,,,,351.52429069999994,351.52429069999994,352.0240139,,,,,,2,0010,25,sentadosom,2023-06-21_18h17.51.912,face_recognition_ERP_protocol,2022.2.5,59.98444003621342,
Celebs/18_Emma_Stone_0016.jpg,non_target,1,0,1,0,0,67,67,52,,,,,,,,,,,,,,352.5254052999999,352.5254052999999,353.02517339999986,,,,,,2,0010,25,sentadosom,2023-06-21_18h17.51.912,face_recognition_ERP_protocol,2022.2.5,59.98444003621342,
Celebs/25_Scarlett_Johansson_0010.jpg,non_target,1,0,1,0,0,68,68,32,,,,,,,,,,,,,,353.5264771999998,353.5264771999998,354.02625539999985,,,,,,2,0010,25,sentadosom,2023-06-21_18h17.51.912,face_recognition_ERP_protocol,2022.2.5,59.98444003621342,
Celebs/22_Margot_Robbie_0010.jpg,non_target,1,0,1,0,0,69,69,18,,,,,,,,,,,,,,354.52755819999993,354.52755819999993,355.0273559999998,,,,,,2,0010,25,sentadosom,2023-06-21_18h17.51.912,face_recognition_ERP_protocol,2022.2.5,59.98444003621342,
Celebs/20_Emma_Stone_0005.jpg,non_target,1,0,1,0,0,70,70,63,,,,,,,,,,,,,,355.5286566,355.5286566,356.02843529999996,,,,,,2,0010,25,sentadosom,2023-06-21_18h17.51.912,face_recognition_ERP_protocol,2022.2.5,59.98444003621342,
Celebs/35_Neil_Patrick_Harris_0009.jpg,non_target,1,0,1,0,0,71,71,87,,,,,,,,,,,,,,356.5297542999999,356.5297542999999,357.0295176999998,,,,,,2,0010,25,sentadosom,2023-06-21_18h17.51.912,face_recognition_ERP_protocol,2022.2.5,59.98444003621342,
Celebs/51_Jackie_Chan_0006.jpg,non_target,1,0,1,0,0,72,72,97,,,,,,,,,,,,,,357.53082419999987,357.53082419999987,358.0306619999999,,,,,,2,0010,25,sentadosom,2023-06-21_18h17.51.912,face_recognition_ERP_protocol,2022.2.5,59.98444003621342,
Celebs/15_Margot_Robbie_0005.jpg,non_target,1,0,1,0,0,73,73,80,,,,,,,,,,,,,,358.5319493999998,358.5319493999998,359.0317554999999,,,,,,2,0010,25,sentadosom,2023-06-21_18h17.51.912,face_recognition_ERP_protocol,2022.2.5,59.98444003621342,
Celebs/21_Scarlett_Johansson_0007.jpg,non_target,1,0,1,0,0,74,74,118,,,,,,,,,,,,,,359.5330442999998,359.5330442999998,360.0328013999999,,,,,,2,0010,25,sentadosom,2023-06-21_18h17.51.912,face_recognition_ERP_protocol,2022.2.5,59.98444003621342,
Celebs/55_Jackie_Chan_0003.jpg,non_target,1,0,1,0,0,75,75,29,,,,,,,,,,,,,,360.53414309999994,360.53414309999994,361.0172275,,,,,,2,0010,25,sentadosom,2023-06-21_18h17.51.912,face_recognition_ERP_protocol,2022.2.5,59.98444003621342,
Celebs/57_Jackie_Chan_0010.jpg,non_target,1,0,1,0,0,76,76,62,,,,,,,,,,,,,,361.5185382999998,361.5185382999998,362.01827819999994,,,,,,2,0010,25,sentadosom,2023-06-21_18h17.51.912,face_recognition_ERP_protocol,2022.2.5,59.98444003621342,
Celebs/37_Neil_Patrick_Harris_0014.jpg,non_target,1,0,1,0,0,77,77,37,,,,,,,,,,,,,,362.51963669999986,362.51963669999986,363.0194154999999,,,,,,2,0010,25,sentadosom,2023-06-21_18h17.51.912,face_recognition_ERP_protocol,2022.2.5,59.98444003621342,
Celebs/14_Emma_Watson_0015.jpg,non_target,1,0,1,0,0,78,78,56,,,,,,,,,,,,,,363.5206930999998,363.5206930999998,364.0204686999998,,,,,,2,0010,25,sentadosom,2023-06-21_18h17.51.912,face_recognition_ERP_protocol,2022.2.5,59.98444003621342,
Celebs/18_Daniel_Radcliffe_0007.jpg,target,1,0,1,0,0,79,79,81,,,,,,,,,,,,,,364.52184169999987,364.52184169999987,365.02160219999996,,,,,,2,0010,25,sentadosom,2023-06-21_18h17.51.912,face_recognition_ERP_protocol,2022.2.5,59.98444003621342,
Celebs/20_Scarlett_Johansson_0011.jpg,non_target,1,0,1,0,0,80,80,109,,,,,,,,,,,,,,365.5229374999999,365.5229374999999,366.0226891,,,,,,2,0010,25,sentadosom,2023-06-21_18h17.51.912,face_recognition_ERP_protocol,2022.2.5,59.98444003621342,
Celebs/50_Jackie_Chan_0012.jpg,non_target,1,0,1,0,0,81,81,43,,,,,,,,,,,,,,366.5240297999999,366.5240297999999,367.02376619999995,,,,,,2,0010,25,sentadosom,2023-06-21_18h17.51.912,face_recognition_ERP_protocol,2022.2.5,59.98444003621342,
Celebs/54_Jackie_Chan_0001.jpg,non_target,1,0,1,0,0,82,82,7,,,,,,,,,,,,,,367.5250948999999,367.5250948999999,368.0248749,,,,,,2,0010,25,sentadosom,2023-06-21_18h17.51.912,face_recognition_ERP_protocol,2022.2.5,59.98444003621342,
Celebs/54_Jackie_Chan_0014.jpg,non_target,1,0,1,0,0,83,83,111,,,,,,,,,,,,,,368.5262052999999,368.5262052999999,369.0259667999999,,,,,,2,0010,25,sentadosom,2023-06-21_18h17.51.912,face_recognition_ERP_protocol,2022.2.5,59.98444003621342,
Celebs/55_Jackie_Chan_0015.jpg,non_target,1,0,1,0,0,84,84,30,,,,,,,,,,,,,,369.5273020999998,369.5273020999998,370.0270767999998,,,,,,2,0010,25,sentadosom,2023-06-21_18h17.51.912,face_recognition_ERP_protocol,2022.2.5,59.98444003621342,
Celebs/33_Jim_Parsons_0011.jpg,non_target,1,0,1,0,0,85,85,34,,,,,,,,,,,,,,370.52836649999995,370.52836649999995,371.0281273999999,,,,,,2,0010,25,sentadosom,2023-06-21_18h17.51.912,face_recognition_ERP_protocol,2022.2.5,59.98444003621342,
Celebs/21_Emma_Watson_0004.jpg,non_target,1,0,1,0,0,86,86,21,,,,,,,,,,,,,,371.52945769999997,371.52945769999997,372.02927999999997,,,,,,2,0010,25,sentadosom,2023-06-21_18h17.51.912,face_recognition_ERP_protocol,2022.2.5,59.98444003621342,
Celebs/17_Margot_Robbie_0012.jpg,non_target,1,0,1,0,0,87,87,67,,,,,,,,,,,,,,372.53055889999996,372.53055889999996,373.0303323999999,,,,,,2,0010,25,sentadosom,2023-06-21_18h17.51.912,face_recognition_ERP_protocol,2022.2.5,59.98444003621342,
Celebs/23_Daniel_Radcliffe_0019.jpg,target,1,0,1,0,0,88,88,6,,,,,,,,,,,,,,373.5316857999999,373.5316857999999,374.03142409999987,,,,,,2,0010,25,sentadosom,2023-06-21_18h17.51.912,face_recognition_ERP_protocol,2022.2.5,59.98444003621342,
Celebs/18_Daniel_Radcliffe_0002.jpg,target,1,0,1,0,0,89,89,119,,,,,,,,,,,,,,374.5327189999998,374.5327189999998,375.0325598999998,,,,,,2,0010,25,sentadosom,2023-06-21_18h17.51.912,face_recognition_ERP_protocol,2022.2.5,59.98444003621342,
Celebs/48_Johnny_Depp_0005.jpg,non_target,1,0,1,0,0,90,90,54,,,,,,,,,,,,,,375.5338328999999,375.5338328999999,376.03361629999995,,,,,,2,0010,25,sentadosom,2023-06-21_18h17.51.912,face_recognition_ERP_protocol,2022.2.5,59.98444003621342,
Celebs/19_Margot_Robbie_0001.jpg,non_target,1,0,1,0,0,91,91,51,,,,,,,,,,,,,,376.5182676999998,376.5182676999998,377.0179950999998,,,,,,2,0010,25,sentadosom,2023-06-21_18h17.51.912,face_recognition_ERP_protocol,2022.2.5,59.98444003621342,
Celebs/22_Scarlett_Johansson_0005.jpg,non_target,1,0,1,0,0,92,92,44,,,,,,,,,,,,,,377.5193511,377.5193511,378.01908879999996,,,,,,2,0010,25,sentadosom,2023-06-21_18h17.51.912,face_recognition_ERP_protocol,2022.2.5,59.98444003621342,
Celebs/50_Jackie_Chan_0014.jpg,non_target,1,0,1,0,0,93,93,38,,,,,,,,,,,,,,378.5204042999999,378.5204042999999,379.02021779999995,,,,,,2,0010,25,sentadosom,2023-06-21_18h17.51.912,face_recognition_ERP_protocol,2022.2.5,59.98444003621342,
Celebs/38_Neil_Patrick_Harris_0006.jpg,non_target,1,0,1,0,0,94,94,31,,,,,,,,,,,,,,379.52153569999996,379.52153569999996,380.0212879999999,,,,,,2,0010,25,sentadosom,2023-06-21_18h17.51.912,face_recognition_ERP_protocol,2022.2.5,59.98444003621342,
Celebs/18_Emma_Watson_0004.jpg,non_target,1,0,1,0,0,95,95,75,,,,,,,,,,,,,,380.5226031999998,380.5226031999998,381.0223710999999,,,,,,2,0010,25,sentadosom,2023-06-21_18h17.51.912,face_recognition_ERP_protocol,2022.2.5,59.98444003621342,
Celebs/20_Margot_Robbie_0006.jpg,non_target,1,0,1,0,0,96,96,35,,,,,,,,,,,,,,381.5236666999999,381.5236666999999,382.0235164999999,,,,,,2,0010,25,sentadosom,2023-06-21_18h17.51.912,face_recognition_ERP_protocol,2022.2.5,59.98444003621342,
Celebs/21_Emma_Stone_0002.jpg,non_target,1,0,1,0,0,97,97,103,,,,,,,,,,,,,,382.52477709999994,382.52477709999994,383.0245726999999,,,,,,2,0010,25,sentadosom,2023-06-21_18h17.51.912,face_recognition_ERP_protocol,2022.2.5,59.98444003621342,
Celebs/17_Margot_Robbie_0014.jpg,non_target,1,0,1,0,0,98,98,114,,,,,,,,,,,,,,383.52583719999984,383.52583719999984,384.0256827999999,,,,,,2,0010,25,sentadosom,2023-06-21_18h17.51.912,face_recognition_ERP_protocol,2022.2.5,59.98444003621342,
Celebs/17_Daniel_Radcliffe_0007.jpg,target,1,0,1,0,0,99,99,19,,,,,,,,,,,,,,384.5269579999999,384.5269579999999,385.0267951999999,,,,,,2,0010,25,sentadosom,2023-06-21_18h17.51.912,face_recognition_ERP_protocol,2022.2.5,59.98444003621342,
Celebs/47_Johnny_Depp_0009.jpg,non_target,1,0,1,0,0,100,100,23,,,,,,,,,,,,,,385.5280587,385.5280587,386.0278930999998,,,,,,2,0010,25,sentadosom,2023-06-21_18h17.51.912,face_recognition_ERP_protocol,2022.2.5,59.98444003621342,
Celebs/52_Jackie_Chan_0002.jpg,non_target,1,0,1,0,0,101,101,68,,,,,,,,,,,,,,386.5291623999999,386.5291623999999,387.0289977,,,,,,2,0010,25,sentadosom,2023-06-21_18h17.51.912,face_recognition_ERP_protocol,2022.2.5,59.98444003621342,
Celebs/55_Jackie_Chan_0008.jpg,non_target,1,0,1,0,0,102,102,92,,,,,,,,,,,,,,387.5302261999998,387.5302261999998,388.0300364999998,,,,,,2,0010,25,sentadosom,2023-06-21_18h17.51.912,face_recognition_ERP_protocol,2022.2.5,59.98444003621342,
Celebs/32_Jim_Parsons_0016.jpg,non_target,1,0,1,0,0,103,103,102,,,,,,,,,,,,,,388.5313441999999,388.5313441999999,389.03116869999985,,,,,,2,0010,25,sentadosom,2023-06-21_18h17.51.912,face_recognition_ERP_protocol,2022.2.5,59.98444003621342,
Celebs/16_Emma_Stone_0012.jpg,non_target,1,0,1,0,0,104,104,70,,,,,,,,,,,,,,389.5324404999999,389.5324404999999,390.03224709999995,,,,,,2,0010,25,sentadosom,2023-06-21_18h17.51.912,face_recognition_ERP_protocol,2022.2.5,59.98444003621342,
Celebs/37_Will_Smith_0015.jpg,non_target,1,0,1,0,0,105,105,113,,,,,,,,,,,,,,390.5336026,390.5336026,391.03333929999985,,,,,,2,0010,25,sentadosom,2023-06-21_18h17.51.912,face_recognition_ERP_protocol,2022.2.5,59.98444003621342,
Celebs/40_Jim_Parsons_0004.jpg,non_target,1,0,1,0,0,106,106,73,,,,,,,,,,,,,,391.5346139999999,391.5346139999999,392.01772329999994,,,,,,2,0010,25,sentadosom,2023-06-21_18h17.51.912,face_recognition_ERP_protocol,2022.2.5,59.98444003621342,
Celebs/22_Emma_Watson_0003.jpg,non_target,1,0,1,0,0,107,107,91,,,,,,,,,,,,,,392.5190221999999,392.5190221999999,393.01886809999996,,,,,,2,0010,25,sentadosom,2023-06-21_18h17.51.912,face_recognition_ERP_protocol,2022.2.5,59.98444003621342,
Celebs/40_Jim_Parsons_0015.jpg,non_target,1,0,1,0,0,108,108,45,,,,,,,,,,,,,,393.5200874999998,393.5200874999998,394.01993319999997,,,,,,2,0010,25,sentadosom,2023-06-21_18h17.51.912,face_recognition_ERP_protocol,2022.2.5,59.98444003621342,
Celebs/47_Johnny_Depp_0003.jpg,non_target,1,0,1,0,0,109,109,9,,,,,,,,,,,,,,394.52119649999986,394.52119649999986,395.0210993999999,,,,,,2,0010,25,sentadosom,2023-06-21_18h17.51.912,face_recognition_ERP_protocol,2022.2.5,59.98444003621342,
Celebs/19_Emma_Stone_0006.jpg,non_target,1,0,1,0,0,110,110,66,,,,,,,,,,,,,,395.5223269999999,395.5223269999999,396.0222130999998,,,,,,2,0010,25,sentadosom,2023-06-21_18h17.51.912,face_recognition_ERP_protocol,2022.2.5,59.98444003621342,
Celebs/27_Scarlett_Johansson_0012.jpg,non_target,1,0,1,0,0,111,111,78,,,,,,,,,,,,,,396.52339429999984,396.52339429999984,397.02318849999983,,,,,,2,0010,25,sentadosom,2023-06-21_18h17.51.912,face_recognition_ERP_protocol,2022.2.5,59.98444003621342,
Celebs/38_Will_Smith_0013.jpg,non_target,1,0,1,0,0,112,112,13,,,,,,,,,,,,,,397.52450969999995,397.52450969999995,398.0243435,,,,,,2,0010,25,sentadosom,2023-06-21_18h17.51.912,face_recognition_ERP_protocol,2022.2.5,59.98444003621342,
Celebs/43_Will_Smith_0010.jpg,non_target,1,0,1,0,0,113,113,22,,,,,,,,,,,,,,398.525582,398.525582,399.0254143999998,,,,,,2,0010,25,sentadosom,2023-06-21_18h17.51.912,face_recognition_ERP_protocol,2022.2.5,59.98444003621342,
Celebs/24_Daniel_Radcliffe_0017.jpg,target,1,0,1,0,0,114,114,71,,,,,,,,,,,,,,399.52664359999994,399.52664359999994,400.02649959999985,,,,,,2,0010,25,sentadosom,2023-06-21_18h17.51.912,face_recognition_ERP_protocol,2022.2.5,59.98444003621342,
Celebs/29_Scarlett_Johansson_0010.jpg,non_target,1,0,1,0,0,115,115,85,,,,,,,,,,,,,,400.52776129999984,400.52776129999984,401.02756569999997,,,,,,2,0010,25,sentadosom,2023-06-21_18h17.51.912,face_recognition_ERP_protocol,2022.2.5,59.98444003621342,
Celebs/32_Jim_Parsons_0010.jpg,non_target,1,0,1,0,0,116,116,98,,,,,,,,,,,,,,401.52886839999996,401.52886839999996,402.02870659999985,,,,,,2,0010,25,sentadosom,2023-06-21_18h17.51.912,face_recognition_ERP_protocol,2022.2.5,59.98444003621342,
Celebs/19_Margot_Robbie_0004.jpg,non_target,1,0,1,0,0,117,117,42,,,,,,,,,,,,,,402.5299444,402.5299444,403.029812,,,,,,2,0010,25,sentadosom,2023-06-21_18h17.51.912,face_recognition_ERP_protocol,2022.2.5,59.98444003621342,
Celebs/14_Emma_Watson_0004.jpg,non_target,1,0,1,0,0,118,118,14,,,,,,,,,,,,,,403.5310665999998,403.5310665999998,404.03088349999985,,,,,,2,0010,25,sentadosom,2023-06-21_18h17.51.912,face_recognition_ERP_protocol,2022.2.5,59.98444003621342,
Celebs/26_Scarlett_Johansson_0008.jpg,non_target,1,0,1,0,0,119,119,47,,,,,,,,,,,,,,404.53212229999986,404.53212229999986,405.03203929999995,,,,,,2,0010,25,sentadosom,2023-06-21_18h17.51.912,face_recognition_ERP_protocol,2022.2.5,59.98444003621342,
Celebs/29_Scarlett_Johansson_0016.jpg,non_target,2,0,2,0,0,0,0,2,,,,,,,,,,,,,,426.8015955999999,426.8015955999999,427.2688744999998,405.5327273999999,405.5327273999999,space,21.20638710000003,,2,0010,25,sentadosom,2023-06-21_18h17.51.912,face_recognition_ERP_protocol,2022.2.5,59.98444003621342,
Celebs/23_Daniel_Radcliffe_0010.jpg,target,2,0,2,0,0,1,1,15,,,,,,,,,,,,,,427.7693843999998,427.7693843999998,428.2699594999999,,,,,,2,0010,25,sentadosom,2023-06-21_18h17.51.912,face_recognition_ERP_protocol,2022.2.5,59.98444003621342,
Celebs/16_Emma_Stone_0008.jpg,non_target,2,0,2,0,0,2,2,48,,,,,,,,,,,,,,428.77056319999997,428.77056319999997,429.27105859999983,,,,,,2,0010,25,sentadosom,2023-06-21_18h17.51.912,face_recognition_ERP_protocol,2022.2.5,59.98444003621342,
Celebs/42_Will_Smith_0012.jpg,non_target,2,0,2,0,0,3,3,64,,,,,,,,,,,,,,429.7716261999999,429.7716261999999,430.2722497999998,,,,,,2,0010,25,sentadosom,2023-06-21_18h17.51.912,face_recognition_ERP_protocol,2022.2.5,59.98444003621342,
Celebs/18_Daniel_Radcliffe_0002.jpg,target,2,0,2,0,0,4,4,119,,,,,,,,,,,,,,430.77274439999997,430.77274439999997,431.2733598,,,,,,2,0010,25,sentadosom,2023-06-21_18h17.51.912,face_recognition_ERP_protocol,2022.2.5,59.98444003621342,
Celebs/21_Daniel_Radcliffe_0012.jpg,target,2,0,2,0,0,5,5,8,,,,,,,,,,,,,,431.7738282999999,431.7738282999999,432.2744415999998,,,,,,2,0010,25,sentadosom,2023-06-21_18h17.51.912,face_recognition_ERP_protocol,2022.2.5,59.98444003621342,
Celebs/18_Daniel_Radcliffe_0008.jpg,target,2,0,2,0,0,6,6,28,,,,,,,,,,,,,,432.7747482,432.7747482,433.2587666999998,,,,,,2,0010,25,sentadosom,2023-06-21_18h17.51.912,face_recognition_ERP_protocol,2022.2.5,59.98444003621342,
Celebs/33_Neil_Patrick_Harris_0011.jpg,non_target,2,0,2,0,0,7,7,112,,,,,,,,,,,,,,433.7590982999998,433.7590982999998,434.25984189999986,,,,,,2,0010,25,sentadosom,2023-06-21_18h17.51.912,face_recognition_ERP_protocol,2022.2.5,59.98444003621342,
Celebs/18_Emma_Stone_0016.jpg,non_target,2,0,2,0,0,8,8,52,,,,,,,,,,,,,,434.7603913999999,434.7603913999999,435.26092789999984,,,,,,2,0010,25,sentadosom,2023-06-21_18h17.51.912,face_recognition_ERP_protocol,2022.2.5,59.98444003621342,
Celebs/57_Jackie_Chan_0008.jpg,non_target,2,0,2,0,0,9,9,72,,,,,,,,,,,,,,435.7614388999998,435.7614388999998,436.26207439999985,,,,,,2,0010,25,sentadosom,2023-06-21_18h17.51.912,face_recognition_ERP_protocol,2022.2.5,59.98444003621342,
Celebs/22_Emma_Watson_0003.jpg,non_target,2,0,2,0,0,10,10,91,,,,,,,,,,,,,,436.76257499999997,436.76257499999997,437.26312499999995,,,,,,2,0010,25,sentadosom,2023-06-21_18h17.51.912,face_recognition_ERP_protocol,2022.2.5,59.98444003621342,
Celebs/18_Emma_Watson_0004.jpg,non_target,2,0,2,0,0,11,11,75,,,,,,,,,,,,,,437.7636835999999,437.7636835999999,438.26422319999983,,,,,,2,0010,25,sentadosom,2023-06-21_18h17.51.912,face_recognition_ERP_protocol,2022.2.5,59.98444003621342,
Celebs/36_Jim_Parsons_0011.jpg,non_target,2,0,2,0,0,12,12,86,,,,,,,,,,,,,,438.76477669999986,438.76477669999986,439.2653456999999,,,,,,2,0010,25,sentadosom,2023-06-21_18h17.51.912,face_recognition_ERP_protocol,2022.2.5,59.98444003621342,
Celebs/18_Daniel_Radcliffe_0007.jpg,target,2,0,2,0,0,13,13,81,,,,,,,,,,,,,,439.76568759999986,439.76568759999986,440.2664266999998,,,,,,2,0010,25,sentadosom,2023-06-21_18h17.51.912,face_recognition_ERP_protocol,2022.2.5,59.98444003621342,
Celebs/19_Margot_Robbie_0004.jpg,non_target,2,0,2,0,0,14,14,42,,,,,,,,,,,,,,440.76691529999994,440.76691529999994,441.2675102999999,,,,,,2,0010,25,sentadosom,2023-06-21_18h17.51.912,face_recognition_ERP_protocol,2022.2.5,59.98444003621342,
Celebs/43_Will_Smith_0007.jpg,non_target,2,0,2,0,0,15,15,74,,,,,,,,,,,,,,441.76806579999993,441.76806579999993,442.2686468999998,,,,,,2,0010,25,sentadosom,2023-06-21_18h17.51.912,face_recognition_ERP_protocol,2022.2.5,59.98444003621342,
Celebs/28_Scarlett_Johansson_0005.jpg,non_target,2,0,2,0,0,16,16,50,,,,,,,,,,,,,,442.7691769999999,442.7691769999999,443.2696956,,,,,,2,0010,25,sentadosom,2023-06-21_18h17.51.912,face_recognition_ERP_protocol,2022.2.5,59.98444003621342,
Celebs/38_Neil_Patrick_Harris_0006.jpg,non_target,2,0,2,0,0,17,17,31,,,,,,,,,,,,,,443.7702106999998,443.7702106999998,444.2707685999999,,,,,,2,0010,25,sentadosom,2023-06-21_18h17.51.912,face_recognition_ERP_protocol,2022.2.5,59.98444003621342,
Celebs/24_Emma_Stone_0015.jpg,non_target,2,0,2,0,0,18,18,57,,,,,,,,,,,,,,444.7711525999998,444.7711525999998,445.2718382999999,,,,,,2,0010,25,sentadosom,2023-06-21_18h17.51.912,face_recognition_ERP_protocol,2022.2.5,59.98444003621342,
Celebs/57_Jackie_Chan_0010.jpg,non_target,2,0,2,0,0,19,19,62,,,,,,,,,,,,,,445.77249069999993,445.77249069999993,446.27295749999985,,,,,,2,0010,25,sentadosom,2023-06-21_18h17.51.912,face_recognition_ERP_protocol,2022.2.5,59.98444003621342,
Celebs/45_Will_Smith_0014.jpg,non_target,2,0,2,0,0,20,20,59,,,,,,,,,,,,,,446.77350909999996,446.77350909999996,447.27406729999984,,,,,,2,0010,25,sentadosom,2023-06-21_18h17.51.912,face_recognition_ERP_protocol,2022.2.5,59.98444003621342,
Celebs/43_Will_Smith_0006.jpg,non_target,2,0,2,0,0,21,21,61,,,,,,,,,,,,,,447.7743854999999,447.7743854999999,448.2751305999998,,,,,,2,0010,25,sentadosom,2023-06-21_18h17.51.912,face_recognition_ERP_protocol,2022.2.5,59.98444003621342,
Celebs/29_Scarlett_Johansson_0010.jpg,non_target,2,0,2,0,0,22,22,85,,,,,,,,,,,,,,448.75900249999995,448.75900249999995,449.2595646,,,,,,2,0010,25,sentadosom,2023-06-21_18h17.51.912,face_recognition_ERP_protocol,2022.2.5,59.98444003621342,
Celebs/31_Neil_Patrick_Harris_0008.jpg,non_target,2,0,2,0,0,23,23,99,,,,,,,,,,,,,,449.7600938999999,449.7600938999999,450.26071079999997,,,,,,2,0010,25,sentadosom,2023-06-21_18h17.51.912,face_recognition_ERP_protocol,2022.2.5,59.98444003621342,
Celebs/39_Jim_Parsons_0004.jpg,non_target,2,0,2,0,0,24,24,88,,,,,,,,,,,,,,450.76107679999996,450.76107679999996,451.2617535999998,,,,,,2,0010,25,sentadosom,2023-06-21_18h17.51.912,face_recognition_ERP_protocol,2022.2.5,59.98444003621342,
Celebs/39_Jim_Parsons_0008.jpg,non_target,2,0,2,0,0,25,25,89,,,,,,,,,,,,,,451.7622707999999,451.7622707999999,452.26289469999983,,,,,,2,0010,25,sentadosom,2023-06-21_18h17.51.912,face_recognition_ERP_protocol,2022.2.5,59.98444003621342,
Celebs/37_Neil_Patrick_Harris_0010.jpg,non_target,2,0,2,0,0,26,26,93,,,,,,,,,,,,,,452.7633907999998,452.7633907999998,453.26397769999994,,,,,,2,0010,25,sentadosom,2023-06-21_18h17.51.912,face_recognition_ERP_protocol,2022.2.5,59.98444003621342,
Celebs/17_Margot_Robbie_0006.jpg,non_target,2,0,2,0,0,27,27,17,,,,,,,,,,,,,,453.76441009999985,453.76441009999985,454.26505669999983,,,,,,2,0010,25,sentadosom,2023-06-21_18h17.51.912,face_recognition_ERP_protocol,2022.2.5,59.98444003621342,
Celebs/36_Neil_Patrick_Harris_0010.jpg,non_target,2,0,2,0,0,28,28,79,,,,,,,,,,,,,,454.76560819999986,454.76560819999986,455.26617769999984,,,,,,2,0010,25,sentadosom,2023-06-21_18h17.51.912,face_recognition_ERP_protocol,2022.2.5,59.98444003621342,
Celebs/50_Jackie_Chan_0014.jpg,non_target,2,0,2,0,0,29,29,38,,,,,,,,,,,,,,455.7666686,455.7666686,456.2672633999998,,,,,,2,0010,25,sentadosom,2023-06-21_18h17.51.912,face_recognition_ERP_protocol,2022.2.5,59.98444003621342,
Celebs/23_Emma_Stone_0014.jpg,non_target,2,0,2,0,0,30,30,12,,,,,,,,,,,,,,456.7677566,456.7677566,457.26830659999996,,,,,,2,0010,25,sentadosom,2023-06-21_18h17.51.912,face_recognition_ERP_protocol,2022.2.5,59.98444003621342,
Celebs/44_Will_Smith_0007.jpg,non_target,2,0,2,0,0,31,31,65,,,,,,,,,,,,,,457.76865599999996,457.76865599999996,458.2694104999998,,,,,,2,0010,25,sentadosom,2023-06-21_18h17.51.912,face_recognition_ERP_protocol,2022.2.5,59.98444003621342,
Celebs/21_Emma_Stone_0003.jpg,non_target,2,0,2,0,0,32,32,25,,,,,,,,,,,,,,458.76993949999996,458.76993949999996,459.2705033999998,,,,,,2,0010,25,sentadosom,2023-06-21_18h17.51.912,face_recognition_ERP_protocol,2022.2.5,59.98444003621342,
Celebs/16_Emma_Stone_0010.jpg,non_target,2,0,2,0,0,33,33,95,,,,,,,,,,,,,,459.7710344999998,459.7710344999998,460.2715954999999,,,,,,2,0010,25,sentadosom,2023-06-21_18h17.51.912,face_recognition_ERP_protocol,2022.2.5,59.98444003621342,
Celebs/26_Scarlett_Johansson_0008.jpg,non_target,2,0,2,0,0,34,34,47,,,,,,,,,,,,,,460.7721061999998,460.7721061999998,461.2727548999999,,,,,,2,0010,25,sentadosom,2023-06-21_18h17.51.912,face_recognition_ERP_protocol,2022.2.5,59.98444003621342,
Celebs/55_Jackie_Chan_0003.jpg,non_target,2,0,2,0,0,35,35,29,,,,,,,,,,,,,,461.77323209999986,461.77323209999986,462.2737689999999,,,,,,2,0010,25,sentadosom,2023-06-21_18h17.51.912,face_recognition_ERP_protocol,2022.2.5,59.98444003621342,
Celebs/55_Jackie_Chan_0015.jpg,non_target,2,0,2,0,0,36,36,30,,,,,,,,,,,,,,462.774369,462.774369,463.2748789,,,,,,2,0010,25,sentadosom,2023-06-21_18h17.51.912,face_recognition_ERP_protocol,2022.2.5,59.98444003621342,
Celebs/44_Will_Smith_0015.jpg,non_target,2,0,2,0,0,37,37,101,,,,,,,,,,,,,,463.7587189999999,463.7587189999999,464.25931849999984,,,,,,2,0010,25,sentadosom,2023-06-21_18h17.51.912,face_recognition_ERP_protocol,2022.2.5,59.98444003621342,
Celebs/21_Daniel_Radcliffe_0002.jpg,target,2,0,2,0,0,38,38,60,,,,,,,,,,,,,,464.7598430999999,464.7598430999999,465.2603472999999,,,,,,2,0010,25,sentadosom,2023-06-21_18h17.51.912,face_recognition_ERP_protocol,2022.2.5,59.98444003621342,
Celebs/40_Jim_Parsons_0004.jpg,non_target,2,0,2,0,0,39,39,73,,,,,,,,,,,,,,465.76089019999995,465.76089019999995,466.2615156999998,,,,,,2,0010,25,sentadosom,2023-06-21_18h17.51.912,face_recognition_ERP_protocol,2022.2.5,59.98444003621342,
Celebs/55_Jackie_Chan_0008.jpg,non_target,2,0,2,0,0,40,40,92,,,,,,,,,,,,,,466.7619832999999,466.7619832999999,467.2625688999999,,,,,,2,0010,25,sentadosom,2023-06-21_18h17.51.912,face_recognition_ERP_protocol,2022.2.5,59.98444003621342,
Celebs/14_Emma_Watson_0008.jpg,non_target,2,0,2,0,0,41,41,36,,,,,,,,,,,,,,467.7631254999999,467.7631254999999,468.2636576,,,,,,2,0010,25,sentadosom,2023-06-21_18h17.51.912,face_recognition_ERP_protocol,2022.2.5,59.98444003621342,
Celebs/17_Daniel_Radcliffe_0007.jpg,target,2,0,2,0,0,42,42,19,,,,,,,,,,,,,,468.7641699999999,468.7641699999999,469.2647609999999,,,,,,2,0010,25,sentadosom,2023-06-21_18h17.51.912,face_recognition_ERP_protocol,2022.2.5,59.98444003621342,
Celebs/49_Johnny_Depp_0013.jpg,non_target,2,0,2,0,0,43,43,33,,,,,,,,,,,,,,469.76527739999983,469.76527739999983,470.2658300999999,,,,,,2,0010,25,sentadosom,2023-06-21_18h17.51.912,face_recognition_ERP_protocol,2022.2.5,59.98444003621342,
Celebs/45_Johnny_Depp_0003.jpg,non_target,2,0,2,0,0,44,44,108,,,,,,,,,,,,,,470.76636929999995,470.76636929999995,471.2669552,,,,,,2,0010,25,sentadosom,2023-06-21_18h17.51.912,face_recognition_ERP_protocol,2022.2.5,59.98444003621342,
Celebs/58_Jackie_Chan_0005.jpg,non_target,2,0,2,0,0,45,45,3,,,,,,,,,,,,,,471.7674611,471.7674611,472.2680476999999,,,,,,2,0010,25,sentadosom,2023-06-21_18h17.51.912,face_recognition_ERP_protocol,2022.2.5,59.98444003621342,
Celebs/20_Scarlett_Johansson_0011.jpg,non_target,2,0,2,0,0,46,46,109,,,,,,,,,,,,,,472.76852669999994,472.76852669999994,473.2691140999998,,,,,,2,0010,25,sentadosom,2023-06-21_18h17.51.912,face_recognition_ERP_protocol,2022.2.5,59.98444003621342,
Celebs/16_Emma_Stone_0012.jpg,non_target,2,0,2,0,0,47,47,70,,,,,,,,,,,,,,473.7696658,473.7696658,474.2702132999998,,,,,,2,0010,25,sentadosom,2023-06-21_18h17.51.912,face_recognition_ERP_protocol,2022.2.5,59.98444003621342,
Celebs/19_Emma_Stone_0006.jpg,non_target,2,0,2,0,0,48,48,66,,,,,,,,,,,,,,474.7707415,474.7707415,475.27132319999987,,,,,,2,0010,25,sentadosom,2023-06-21_18h17.51.912,face_recognition_ERP_protocol,2022.2.5,59.98444003621342,
Celebs/21_Daniel_Radcliffe_0008.jpg,target,2,0,2,0,0,49,49,16,,,,,,,,,,,,,,475.7718120999998,475.7718120999998,476.27239800000007,,,,,,2,0010,25,sentadosom,2023-06-21_18h17.51.912,face_recognition_ERP_protocol,2022.2.5,59.98444003621342,
Celebs/14_Emma_Watson_0015.jpg,non_target,2,0,2,0,0,50,50,56,,,,,,,,,,,,,,476.7729184,476.7729184,477.27348459999985,,,,,,2,0010,25,sentadosom,2023-06-21_18h17.51.912,face_recognition_ERP_protocol,2022.2.5,59.98444003621342,
Celebs/48_Johnny_Depp_0003.jpg,non_target,2,0,2,0,0,51,51,55,,,,,,,,,,,,,,477.7738522999998,477.7738522999998,478.27460199999996,,,,,,2,0010,25,sentadosom,2023-06-21_18h17.51.912,face_recognition_ERP_protocol,2022.2.5,59.98444003621342,
Celebs/14_Emma_Watson_0005.jpg,non_target,2,0,2,0,0,52,52,26,,,,,,,,,,,,,,478.77510619999975,478.77510619999975,479.2589863999997,,,,,,2,0010,25,sentadosom,2023-06-21_18h17.51.912,face_recognition_ERP_protocol,2022.2.5,59.98444003621342,
Celebs/37_Neil_Patrick_Harris_0014.jpg,non_target,2,0,2,0,0,53,53,37,,,,,,,,,,,,,,479.7593615999999,479.7593615999999,480.2601341999998,,,,,,2,0010,25,sentadosom,2023-06-21_18h17.51.912,face_recognition_ERP_protocol,2022.2.5,59.98444003621342,
Celebs/38_Will_Smith_0013.jpg,non_target,2,0,2,0,0,54,54,13,,,,,,,,,,,,,,480.7606237,480.7606237,481.2611965000001,,,,,,2,0010,25,sentadosom,2023-06-21_18h17.51.912,face_recognition_ERP_protocol,2022.2.5,59.98444003621342,
Celebs/21_Daniel_Radcliffe_0009.jpg,target,2,0,2,0,0,55,55,83,,,,,,,,,,,,,,481.76169849999997,481.76169849999997,482.26227259999996,,,,,,2,0010,25,sentadosom,2023-06-21_18h17.51.912,face_recognition_ERP_protocol,2022.2.5,59.98444003621342,
Celebs/50_Johnny_Depp_0008.jpg,non_target,2,0,2,0,0,56,56,84,,,,,,,,,,,,,,482.7628497999999,482.7628497999999,483.2633611000001,,,,,,2,0010,25,sentadosom,2023-06-21_18h17.51.912,face_recognition_ERP_protocol,2022.2.5,59.98444003621342,
Celebs/16_Emma_Stone_0014.jpg,non_target,2,0,2,0,0,57,57,40,,,,,,,,,,,,,,483.7637101999999,483.7637101999999,484.2644627999998,,,,,,2,0010,25,sentadosom,2023-06-21_18h17.51.912,face_recognition_ERP_protocol,2022.2.5,59.98444003621342,
Celebs/54_Jackie_Chan_0001.jpg,non_target,2,0,2,0,0,58,58,7,,,,,,,,,,,,,,484.76499839999997,484.76499839999997,485.26555169999983,,,,,,2,0010,25,sentadosom,2023-06-21_18h17.51.912,face_recognition_ERP_protocol,2022.2.5,59.98444003621342,
Celebs/39_Jim_Parsons_0001.jpg,non_target,2,0,2,0,0,59,59,49,,,,,,,,,,,,,,485.76611679999996,485.76611679999996,486.2666541999997,,,,,,2,0010,25,sentadosom,2023-06-21_18h17.51.912,face_recognition_ERP_protocol,2022.2.5,59.98444003621342,
Celebs/34_Neil_Patrick_Harris_0007.jpg,non_target,2,0,2,0,0,60,60,117,,,,,,,,,,,,,,486.76718200000005,486.76718200000005,487.267832,,,,,,2,0010,25,sentadosom,2023-06-21_18h17.51.912,face_recognition_ERP_protocol,2022.2.5,59.98444003621342,
Celebs/45_Will_Smith_0010.jpg,non_target,2,0,2,0,0,61,61,69,,,,,,,,,,,,,,487.7683066999998,487.7683066999998,488.26900290000003,,,,,,2,0010,25,sentadosom,2023-06-21_18h17.51.912,face_recognition_ERP_protocol,2022.2.5,59.98444003621342,
Celebs/17_Margot_Robbie_0014.jpg,non_target,2,0,2,0,0,62,62,114,,,,,,,,,,,,,,488.7693693000001,488.7693693000001,489.2701274000001,,,,,,2,0010,25,sentadosom,2023-06-21_18h17.51.912,face_recognition_ERP_protocol,2022.2.5,59.98444003621342,
Celebs/37_Will_Smith_0015.jpg,non_target,2,0,2,0,0,63,63,113,,,,,,,,,,,,,,489.77045279999993,489.77045279999993,490.2714063999997,,,,,,2,0010,25,sentadosom,2023-06-21_18h17.51.912,face_recognition_ERP_protocol,2022.2.5,59.98444003621342,
Celebs/47_Johnny_Depp_0003.jpg,non_target,2,0,2,0,0,64,64,9,,,,,,,,,,,,,,490.77137379999976,490.77137379999976,491.2721164999998,,,,,,2,0010,25,sentadosom,2023-06-21_18h17.51.912,face_recognition_ERP_protocol,2022.2.5,59.98444003621342,
Celebs/22_Emma_Watson_0001.jpg,non_target,2,0,2,0,0,65,65,58,,,,,,,,,,,,,,491.77265739999984,491.77265739999984,492.2732338999999,,,,,,2,0010,25,sentadosom,2023-06-21_18h17.51.912,face_recognition_ERP_protocol,2022.2.5,59.98444003621342,
Celebs/40_Will_Smith_0012.jpg,non_target,2,0,2,0,0,66,66,110,,,,,,,,,,,,,,492.77378929999986,492.77378929999986,493.2742989999997,,,,,,2,0010,25,sentadosom,2023-06-21_18h17.51.912,face_recognition_ERP_protocol,2022.2.5,59.98444003621342,
Celebs/38_Jim_Parsons_0003.jpg,non_target,2,0,2,0,0,67,67,53,,,,,,,,,,,,,,493.77484909999976,493.77484909999976,494.2587072000001,,,,,,2,0010,25,sentadosom,2023-06-21_18h17.51.912,face_recognition_ERP_protocol,2022.2.5,59.98444003621342,
Celebs/50_Johnny_Depp_0010.jpg,non_target,2,0,2,0,0,68,68,115,,,,,,,,,,,,,,494.7593858,494.7593858,495.2598595999998,,,,,,2,0010,25,sentadosom,2023-06-21_18h17.51.912,face_recognition_ERP_protocol,2022.2.5,59.98444003621342,
Celebs/22_Emma_Watson_0010.jpg,non_target,2,0,2,0,0,69,69,11,,,,,,,,,,,,,,495.7603365,495.7603365,496.2609314000001,,,,,,2,0010,25,sentadosom,2023-06-21_18h17.51.912,face_recognition_ERP_protocol,2022.2.5,59.98444003621342,
Celebs/15_Margot_Robbie_0012.jpg,non_target,2,0,2,0,0,70,70,82,,,,,,,,,,,,,,496.7614278000001,496.7614278000001,497.2620280000001,,,,,,2,0010,25,sentadosom,2023-06-21_18h17.51.912,face_recognition_ERP_protocol,2022.2.5,59.98444003621342,
Celebs/20_Margot_Robbie_0004.jpg,non_target,2,0,2,0,0,71,71,116,,,,,,,,,,,,,,497.7625700999997,497.7625700999997,498.26307529999985,,,,,,2,0010,25,sentadosom,2023-06-21_18h17.51.912,face_recognition_ERP_protocol,2022.2.5,59.98444003621342,
Celebs/14_Emma_Watson_0004.jpg,non_target,2,0,2,0,0,72,72,14,,,,,,,,,,,,,,498.7636140999998,498.7636140999998,499.2641659000001,,,,,,2,0010,25,sentadosom,2023-06-21_18h17.51.912,face_recognition_ERP_protocol,2022.2.5,59.98444003621342,
Celebs/33_Jim_Parsons_0011.jpg,non_target,2,0,2,0,0,73,73,34,,,,,,,,,,,,,,499.7647019000001,499.7647019000001,500.26526019999983,,,,,,2,0010,25,sentadosom,2023-06-21_18h17.51.912,face_recognition_ERP_protocol,2022.2.5,59.98444003621342,
Celebs/32_Jim_Parsons_0010.jpg,non_target,2,0,2,0,0,74,74,98,,,,,,,,,,,,,,500.7657986999998,500.7657986999998,501.2663563000001,,,,,,2,0010,25,sentadosom,2023-06-21_18h17.51.912,face_recognition_ERP_protocol,2022.2.5,59.98444003621342,
Celebs/51_Jackie_Chan_0006.jpg,non_target,2,0,2,0,0,75,75,97,,,,,,,,,,,,,,501.7669181000001,501.7669181000001,502.2674597,,,,,,2,0010,25,sentadosom,2023-06-21_18h17.51.912,face_recognition_ERP_protocol,2022.2.5,59.98444003621342,
Celebs/27_Scarlett_Johansson_0012.jpg,non_target,2,0,2,0,0,76,76,78,,,,,,,,,,,,,,502.7680072999997,502.7680072999997,503.2686713999997,,,,,,2,0010,25,sentadosom,2023-06-21_18h17.51.912,face_recognition_ERP_protocol,2022.2.5,59.98444003621342,
Celebs/40_Jim_Parsons_0015.jpg,non_target,2,0,2,0,0,77,77,45,,,,,,,,,,,,,,503.76908449999974,503.76908449999974,504.26964389999966,,,,,,2,0010,25,sentadosom,2023-06-21_18h17.51.912,face_recognition_ERP_protocol,2022.2.5,59.98444003621342,
Celebs/25_Scarlett_Johansson_0010.jpg,non_target,2,0,2,0,0,78,78,32,,,,,,,,,,,,,,504.7701941999999,504.7701941999999,505.2707311999998,,,,,,2,0010,25,sentadosom,2023-06-21_18h17.51.912,face_recognition_ERP_protocol,2022.2.5,59.98444003621342,
Celebs/54_Jackie_Chan_0014.jpg,non_target,2,0,2,0,0,79,79,111,,,,,,,,,,,,,,505.7713322999998,505.7713322999998,506.2718087999997,,,,,,2,0010,25,sentadosom,2023-06-21_18h17.51.912,face_recognition_ERP_protocol,2022.2.5,59.98444003621342,
Celebs/50_Johnny_Depp_0018.jpg,non_target,2,0,2,0,0,80,80,24,,,,,,,,,,,,,,506.77234229999976,506.77234229999976,507.27292369999986,,,,,,2,0010,25,sentadosom,2023-06-21_18h17.51.912,face_recognition_ERP_protocol,2022.2.5,59.98444003621342,
Celebs/48_Johnny_Depp_0001.jpg,non_target,2,0,2,0,0,81,81,106,,,,,,,,,,,,,,507.77346450000005,507.77346450000005,508.27401310000005,,,,,,2,0010,25,sentadosom,2023-06-21_18h17.51.912,face_recognition_ERP_protocol,2022.2.5,59.98444003621342,
Celebs/52_Jackie_Chan_0002.jpg,non_target,2,0,2,0,0,82,82,68,,,,,,,,,,,,,,508.7745445999999,508.7745445999999,509.27510649999977,,,,,,2,0010,25,sentadosom,2023-06-21_18h17.51.912,face_recognition_ERP_protocol,2022.2.5,59.98444003621342,
Celebs/34_Neil_Patrick_Harris_0004.jpg,non_target,2,0,2,0,0,83,83,104,,,,,,,,,,,,,,509.75896639999974,509.75896639999974,510.2595315999997,,,,,,2,0010,25,sentadosom,2023-06-21_18h17.51.912,face_recognition_ERP_protocol,2022.2.5,59.98444003621342,
Celebs/47_Johnny_Depp_0009.jpg,non_target,2,0,2,0,0,84,84,23,,,,,,,,,,,,,,510.7600924999997,510.7600924999997,511.2606318999997,,,,,,2,0010,25,sentadosom,2023-06-21_18h17.51.912,face_recognition_ERP_protocol,2022.2.5,59.98444003621342,
Celebs/47_Johnny_Depp_0004.jpg,non_target,2,0,2,0,0,85,85,76,,,,,,,,,,,,,,511.7610915,511.7610915,512.2617182999998,,,,,,2,0010,25,sentadosom,2023-06-21_18h17.51.912,face_recognition_ERP_protocol,2022.2.5,59.98444003621342,
Celebs/26_Scarlett_Johansson_0003.jpg,non_target,2,0,2,0,0,86,86,105,,,,,,,,,,,,,,512.7622956999999,512.7622956999999,513.2628636,,,,,,2,0010,25,sentadosom,2023-06-21_18h17.51.912,face_recognition_ERP_protocol,2022.2.5,59.98444003621342,
Celebs/21_Margot_Robbie_0003.jpg,non_target,2,0,2,0,0,87,87,27,,,,,,,,,,,,,,513.7633522000001,513.7633522000001,514.2640345,,,,,,2,0010,25,sentadosom,2023-06-21_18h17.51.912,face_recognition_ERP_protocol,2022.2.5,59.98444003621342,
Celebs/36_Neil_Patrick_Harris_0007.jpg,non_target,2,0,2,0,0,88,88,5,,,,,,,,,,,,,,514.7644114,514.7644114,515.2651066999997,,,,,,2,0010,25,sentadosom,2023-06-21_18h17.51.912,face_recognition_ERP_protocol,2022.2.5,59.98444003621342,
Celebs/14_Emma_Watson_0013.jpg,non_target,2,0,2,0,0,89,89,20,,,,,,,,,,,,,,515.7655153000001,515.7655153000001,516.2660843999997,,,,,,2,0010,25,sentadosom,2023-06-21_18h17.51.912,face_recognition_ERP_protocol,2022.2.5,59.98444003621342,
Celebs/20_Emma_Watson_0007.jpg,non_target,2,0,2,0,0,90,90,96,,,,,,,,,,,,,,516.7664323999998,516.7664323999998,517.2671898999997,,,,,,2,0010,25,sentadosom,2023-06-21_18h17.51.912,face_recognition_ERP_protocol,2022.2.5,59.98444003621342,
Celebs/17_Emma_Watson_0006.jpg,non_target,2,0,2,0,0,91,91,90,,,,,,,,,,,,,,517.7677246999997,517.7677246999997,518.2682768,,,,,,2,0010,25,sentadosom,2023-06-21_18h17.51.912,face_recognition_ERP_protocol,2022.2.5,59.98444003621342,
Celebs/21_Scarlett_Johansson_0007.jpg,non_target,2,0,2,0,0,92,92,118,,,,,,,,,,,,,,518.7686196999998,518.7686196999998,519.2693787999997,,,,,,2,0010,25,sentadosom,2023-06-21_18h17.51.912,face_recognition_ERP_protocol,2022.2.5,59.98444003621342,
Celebs/24_Scarlett_Johansson_0011.jpg,non_target,2,0,2,0,0,93,93,100,,,,,,,,,,,,,,519.7699122999998,519.7699122999998,520.2704550999997,,,,,,2,0010,25,sentadosom,2023-06-21_18h17.51.912,face_recognition_ERP_protocol,2022.2.5,59.98444003621342,
Celebs/50_Jackie_Chan_0012.jpg,non_target,2,0,2,0,0,94,94,43,,,,,,,,,,,,,,520.7708374999997,520.7708374999997,521.2716046,,,,,,2,0010,25,sentadosom,2023-06-21_18h17.51.912,face_recognition_ERP_protocol,2022.2.5,59.98444003621342,
Celebs/23_Daniel_Radcliffe_0019.jpg,target,2,0,2,0,0,95,95,6,,,,,,,,,,,,,,521.7721346999997,521.7721346999997,522.2726356999997,,,,,,2,0010,25,sentadosom,2023-06-21_18h17.51.912,face_recognition_ERP_protocol,2022.2.5,59.98444003621342,
Celebs/20_Margot_Robbie_0006.jpg,non_target,2,0,2,0,0,96,96,35,,,,,,,,,,,,,,522.7731756999997,522.7731756999997,523.2737222999999,,,,,,2,0010,25,sentadosom,2023-06-21_18h17.51.912,face_recognition_ERP_protocol,2022.2.5,59.98444003621342,
Celebs/17_Margot_Robbie_0012.jpg,non_target,2,0,2,0,0,97,97,67,,,,,,,,,,,,,,523.7742644,523.7742644,524.2749144999998,,,,,,2,0010,25,sentadosom,2023-06-21_18h17.51.912,face_recognition_ERP_protocol,2022.2.5,59.98444003621342,
Celebs/19_Margot_Robbie_0001.jpg,non_target,2,0,2,0,0,98,98,51,,,,,,,,,,,,,,524.7586563,524.7586563,525.2592261,,,,,,2,0010,25,sentadosom,2023-06-21_18h17.51.912,face_recognition_ERP_protocol,2022.2.5,59.98444003621342,
Celebs/21_Emma_Stone_0002.jpg,non_target,2,0,2,0,0,99,99,103,,,,,,,,,,,,,,525.7597983999999,525.7597983999999,526.2603301999998,,,,,,2,0010,25,sentadosom,2023-06-21_18h17.51.912,face_recognition_ERP_protocol,2022.2.5,59.98444003621342,
Celebs/39_Neil_Patrick_Harris_0001.jpg,non_target,2,0,2,0,0,100,100,4,,,,,,,,,,,,,,526.7608651,526.7608651,527.2614344999997,,,,,,2,0010,25,sentadosom,2023-06-21_18h17.51.912,face_recognition_ERP_protocol,2022.2.5,59.98444003621342,
Celebs/43_Will_Smith_0010.jpg,non_target,2,0,2,0,0,101,101,22,,,,,,,,,,,,,,527.7619480999997,527.7619480999997,528.2625276999997,,,,,,2,0010,25,sentadosom,2023-06-21_18h17.51.912,face_recognition_ERP_protocol,2022.2.5,59.98444003621342,
Celebs/32_Jim_Parsons_0016.jpg,non_target,2,0,2,0,0,102,102,102,,,,,,,,,,,,,,528.7629127999999,528.7629127999999,529.2636410999999,,,,,,2,0010,25,sentadosom,2023-06-21_18h17.51.912,face_recognition_ERP_protocol,2022.2.5,59.98444003621342,
Celebs/22_Margot_Robbie_0010.jpg,non_target,2,0,2,0,0,103,103,18,,,,,,,,,,,,,,529.7640748999997,529.7640748999997,530.2647204,,,,,,2,0010,25,sentadosom,2023-06-21_18h17.51.912,face_recognition_ERP_protocol,2022.2.5,59.98444003621342,
Celebs/22_Emma_Stone_0013.jpg,non_target,2,0,2,0,0,104,104,1,,,,,,,,,,,,,,530.7652198000001,530.7652198000001,531.2657919999997,,,,,,2,0010,25,sentadosom,2023-06-21_18h17.51.912,face_recognition_ERP_protocol,2022.2.5,59.98444003621342,
Celebs/15_Margot_Robbie_0005.jpg,non_target,2,0,2,0,0,105,105,80,,,,,,,,,,,,,,531.7661528999997,531.7661528999997,532.2668902,,,,,,2,0010,25,sentadosom,2023-06-21_18h17.51.912,face_recognition_ERP_protocol,2022.2.5,59.98444003621342,
Celebs/23_Daniel_Radcliffe_0002.jpg,target,2,0,2,0,0,106,106,77,,,,,,,,,,,,,,532.7674125999997,532.7674125999997,533.2679807999998,,,,,,2,0010,25,sentadosom,2023-06-21_18h17.51.912,face_recognition_ERP_protocol,2022.2.5,59.98444003621342,
Celebs/24_Scarlett_Johansson_0001.jpg,non_target,2,0,2,0,0,107,107,10,,,,,,,,,,,,,,533.7685149999998,533.7685149999998,534.2690889,,,,,,2,0010,25,sentadosom,2023-06-21_18h17.51.912,face_recognition_ERP_protocol,2022.2.5,59.98444003621342,
Celebs/32_Jim_Parsons_0018.jpg,non_target,2,0,2,0,0,108,108,46,,,,,,,,,,,,,,534.7696400999998,534.7696400999998,535.2701886999998,,,,,,2,0010,25,sentadosom,2023-06-21_18h17.51.912,face_recognition_ERP_protocol,2022.2.5,59.98444003621342,
Celebs/24_Daniel_Radcliffe_0017.jpg,target,2,0,2,0,0,109,109,71,,,,,,,,,,,,,,535.770716,535.770716,536.2712799999999,,,,,,2,0010,25,sentadosom,2023-06-21_18h17.51.912,face_recognition_ERP_protocol,2022.2.5,59.98444003621342,
Celebs/48_Johnny_Depp_0005.jpg,non_target,2,0,2,0,0,110,110,54,,,,,,,,,,,,,,536.7717883999999,536.7717883999999,537.2723538,,,,,,2,0010,25,sentadosom,2023-06-21_18h17.51.912,face_recognition_ERP_protocol,2022.2.5,59.98444003621342,
Celebs/39_Neil_Patrick_Harris_0010.jpg,non_target,2,0,2,0,0,111,111,94,,,,,,,,,,,,,,537.7729387999998,537.7729387999998,538.2734446,,,,,,2,0010,25,sentadosom,2023-06-21_18h17.51.912,face_recognition_ERP_protocol,2022.2.5,59.98444003621342,
Celebs/16_Margot_Robbie_0009.jpg,non_target,2,0,2,0,0,112,112,107,,,,,,,,,,,,,,538.7739880999998,538.7739880999998,539.2745534999999,,,,,,2,0010,25,sentadosom,2023-06-21_18h17.51.912,face_recognition_ERP_protocol,2022.2.5,59.98444003621342,
Celebs/44_Will_Smith_0006.jpg,non_target,2,0,2,0,0,113,113,41,,,,,,,,,,,,,,539.7750526,539.7750526,540.2589496999999,,,,,,2,0010,25,sentadosom,2023-06-21_18h17.51.912,face_recognition_ERP_protocol,2022.2.5,59.98444003621342,
Celebs/21_Emma_Watson_0004.jpg,non_target,2,0,2,0,0,114,114,21,,,,,,,,,,,,,,540.7593219999999,540.7593219999999,541.2600444,,,,,,2,0010,25,sentadosom,2023-06-21_18h17.51.912,face_recognition_ERP_protocol,2022.2.5,59.98444003621342,
Celebs/22_Scarlett_Johansson_0005.jpg,non_target,2,0,2,0,0,115,115,44,,,,,,,,,,,,,,541.7605758,541.7605758,542.2611486999999,,,,,,2,0010,25,sentadosom,2023-06-21_18h17.51.912,face_recognition_ERP_protocol,2022.2.5,59.98444003621342,
Celebs/35_Neil_Patrick_Harris_0009.jpg,non_target,2,0,2,0,0,116,116,87,,,,,,,,,,,,,,542.7617151999998,542.7617151999998,543.2622524999997,,,,,,2,0010,25,sentadosom,2023-06-21_18h17.51.912,face_recognition_ERP_protocol,2022.2.5,59.98444003621342,
Celebs/50_Johnny_Depp_0004.jpg,non_target,2,0,2,0,0,117,117,39,,,,,,,,,,,,,,543.7627607999998,543.7627607999998,544.2633504,,,,,,2,0010,25,sentadosom,2023-06-21_18h17.51.912,face_recognition_ERP_protocol,2022.2.5,59.98444003621342,
Celebs/39_Jim_Parsons_0010.jpg,non_target,2,0,2,0,0,118,118,0,,,,,,,,,,,,,,544.7638701000001,544.7638701000001,545.2644344999999,,,,,,2,0010,25,sentadosom,2023-06-21_18h17.51.912,face_recognition_ERP_protocol,2022.2.5,59.98444003621342,
Celebs/20_Emma_Stone_0005.jpg,non_target,2,0,2,0,0,119,119,63,,,,,,,,,,,,,,545.7649975999998,545.7649975999998,546.2655114999998,,,,,,2,0010,25,sentadosom,2023-06-21_18h17.51.912,face_recognition_ERP_protocol,2022.2.5,59.98444003621342,
Celebs/57_Jackie_Chan_0008.jpg,non_target,3,0,3,0,0,0,0,72,,,,,,,,,,,,,,564.9714541999997,564.9714541999997,565.4405434999999,546.7660925999999,546.7660925999999,space,18.14954179999995,,2,0010,25,sentadosom,2023-06-21_18h17.51.912,face_recognition_ERP_protocol,2022.2.5,59.98444003621342,
Celebs/34_Neil_Patrick_Harris_0004.jpg,non_target,3,0,3,0,0,1,1,104,,,,,,,,,,,,,,565.9418606999998,565.9418606999998,566.4416551999998,,,,,,2,0010,25,sentadosom,2023-06-21_18h17.51.912,face_recognition_ERP_protocol,2022.2.5,59.98444003621342,
Celebs/40_Jim_Parsons_0004.jpg,non_target,3,0,3,0,0,2,2,73,,,,,,,,,,,,,,566.9429590999998,566.9429590999998,567.4427363,,,,,,2,0010,25,sentadosom,2023-06-21_18h17.51.912,face_recognition_ERP_protocol,2022.2.5,59.98444003621342,
Celebs/48_Johnny_Depp_0005.jpg,non_target,3,0,3,0,0,3,3,54,,,,,,,,,,,,,,567.9440295999998,567.9440295999998,568.4438181999999,,,,,,2,0010,25,sentadosom,2023-06-21_18h17.51.912,face_recognition_ERP_protocol,2022.2.5,59.98444003621342,
Celebs/22_Margot_Robbie_0010.jpg,non_target,3,0,3,0,0,4,4,18,,,,,,,,,,,,,,568.9451181,568.9451181,569.4449411999999,,,,,,2,0010,25,sentadosom,2023-06-21_18h17.51.912,face_recognition_ERP_protocol,2022.2.5,59.98444003621342,
Celebs/16_Emma_Stone_0008.jpg,non_target,3,0,3,0,0,5,5,48,,,,,,,,,,,,,,569.9462524,569.9462524,570.4460315000001,,,,,,2,0010,25,sentadosom,2023-06-21_18h17.51.912,face_recognition_ERP_protocol,2022.2.5,59.98444003621342,
Celebs/22_Scarlett_Johansson_0005.jpg,non_target,3,0,3,0,0,6,6,44,,,,,,,,,,,,,,570.9473644,570.9473644,571.4470925999999,,,,,,2,0010,25,sentadosom,2023-06-21_18h17.51.912,face_recognition_ERP_protocol,2022.2.5,59.98444003621342,
Celebs/39_Neil_Patrick_Harris_0001.jpg,non_target,3,0,3,0,0,7,7,4,,,,,,,,,,,,,,571.9484520999999,571.9484520999999,572.4482831999999,,,,,,2,0010,25,sentadosom,2023-06-21_18h17.51.912,face_recognition_ERP_protocol,2022.2.5,59.98444003621342,
Celebs/36_Neil_Patrick_Harris_0007.jpg,non_target,3,0,3,0,0,8,8,5,,,,,,,,,,,,,,572.9495002999997,572.9495002999997,573.4493171999998,,,,,,2,0010,25,sentadosom,2023-06-21_18h17.51.912,face_recognition_ERP_protocol,2022.2.5,59.98444003621342,
Celebs/58_Jackie_Chan_0005.jpg,non_target,3,0,3,0,0,9,9,3,,,,,,,,,,,,,,573.9506186999997,573.9506186999997,574.45037,,,,,,2,0010,25,sentadosom,2023-06-21_18h17.51.912,face_recognition_ERP_protocol,2022.2.5,59.98444003621342,
Celebs/16_Emma_Stone_0014.jpg,non_target,3,0,3,0,0,10,10,40,,,,,,,,,,,,,,574.9516957999999,574.9516957999999,575.4514771999998,,,,,,2,0010,25,sentadosom,2023-06-21_18h17.51.912,face_recognition_ERP_protocol,2022.2.5,59.98444003621342,
Celebs/21_Daniel_Radcliffe_0008.jpg,target,3,0,3,0,0,11,11,16,,,,,,,,,,,,,,575.9528154,575.9528154,576.4525521,,,,,,2,0010,25,sentadosom,2023-06-21_18h17.51.912,face_recognition_ERP_protocol,2022.2.5,59.98444003621342,
Celebs/43_Will_Smith_0007.jpg,non_target,3,0,3,0,0,12,12,74,,,,,,,,,,,,,,576.9539202999999,576.9539202999999,577.4536859,,,,,,2,0010,25,sentadosom,2023-06-21_18h17.51.912,face_recognition_ERP_protocol,2022.2.5,59.98444003621342,
Celebs/21_Emma_Stone_0003.jpg,non_target,3,0,3,0,0,13,13,25,,,,,,,,,,,,,,577.9549982999997,577.9549982999997,578.43811,,,,,,2,0010,25,sentadosom,2023-06-21_18h17.51.912,face_recognition_ERP_protocol,2022.2.5,59.98444003621342,
Celebs/18_Daniel_Radcliffe_0002.jpg,target,3,0,3,0,0,14,14,119,,,,,,,,,,,,,,578.9394217999998,578.9394217999998,579.4391811999999,,,,,,2,0010,25,sentadosom,2023-06-21_18h17.51.912,face_recognition_ERP_protocol,2022.2.5,59.98444003621342,
Celebs/44_Will_Smith_0006.jpg,non_target,3,0,3,0,0,15,15,41,,,,,,,,,,,,,,579.9404725999998,579.9404725999998,580.440282,,,,,,2,0010,25,sentadosom,2023-06-21_18h17.51.912,face_recognition_ERP_protocol,2022.2.5,59.98444003621342,
Celebs/44_Will_Smith_0007.jpg,non_target,3,0,3,0,0,16,16,65,,,,,,,,,,,,,,580.9415767999999,580.9415767999999,581.4413777999998,,,,,,2,0010,25,sentadosom,2023-06-21_18h17.51.912,face_recognition_ERP_protocol,2022.2.5,59.98444003621342,
Celebs/43_Will_Smith_0006.jpg,non_target,3,0,3,0,0,17,17,61,,,,,,,,,,,,,,581.9426884999998,581.9426884999998,582.4424742000001,,,,,,2,0010,25,sentadosom,2023-06-21_18h17.51.912,face_recognition_ERP_protocol,2022.2.5,59.98444003621342,
Celebs/37_Will_Smith_0015.jpg,non_target,3,0,3,0,0,18,18,113,,,,,,,,,,,,,,582.9437654999997,582.9437654999997,583.443589,,,,,,2,0010,25,sentadosom,2023-06-21_18h17.51.912,face_recognition_ERP_protocol,2022.2.5,59.98444003621342,
Celebs/17_Margot_Robbie_0006.jpg,non_target,3,0,3,0,0,19,19,17,,,,,,,,,,,,,,583.9448806,583.9448806,584.4446684999998,,,,,,2,0010,25,sentadosom,2023-06-21_18h17.51.912,face_recognition_ERP_protocol,2022.2.5,59.98444003621342,
Celebs/14_Emma_Watson_0015.jpg,non_target,3,0,3,0,0,20,20,56,,,,,,,,,,,,,,584.9459757999998,584.9459757999998,585.4457491999997,,,,,,2,0010,25,sentadosom,2023-06-21_18h17.51.912,face_recognition_ERP_protocol,2022.2.5,59.98444003621342,
Celebs/17_Daniel_Radcliffe_0007.jpg,target,3,0,3,0,0,21,21,19,,,,,,,,,,,,,,585.9470797999998,585.9470797999998,586.4468305999999,,,,,,2,0010,25,sentadosom,2023-06-21_18h17.51.912,face_recognition_ERP_protocol,2022.2.5,59.98444003621342,
Celebs/54_Jackie_Chan_0014.jpg,non_target,3,0,3,0,0,22,22,111,,,,,,,,,,,,,,586.9481944999998,586.9481944999998,587.4479265,,,,,,2,0010,25,sentadosom,2023-06-21_18h17.51.912,face_recognition_ERP_protocol,2022.2.5,59.98444003621342,
Celebs/44_Will_Smith_0015.jpg,non_target,3,0,3,0,0,23,23,101,,,,,,,,,,,,,,587.9492179999997,587.9492179999997,588.4490442000001,,,,,,2,0010,25,sentadosom,2023-06-21_18h17.51.912,face_recognition_ERP_protocol,2022.2.5,59.98444003621342,
Celebs/28_Scarlett_Johansson_0005.jpg,non_target,3,0,3,0,0,24,24,50,,,,,,,,,,,,,,588.9503629000001,588.9503629000001,589.4501034999998,,,,,,2,0010,25,sentadosom,2023-06-21_18h17.51.912,face_recognition_ERP_protocol,2022.2.5,59.98444003621342,
Celebs/15_Margot_Robbie_0012.jpg,non_target,3,0,3,0,0,25,25,82,,,,,,,,,,,,,,589.9514383999999,589.9514383999999,590.4512160999998,,,,,,2,0010,25,sentadosom,2023-06-21_18h17.51.912,face_recognition_ERP_protocol,2022.2.5,59.98444003621342,
Celebs/38_Neil_Patrick_Harris_0006.jpg,non_target,3,0,3,0,0,26,26,31,,,,,,,,,,,,,,590.9526012000001,590.9526012000001,591.4522499,,,,,,2,0010,25,sentadosom,2023-06-21_18h17.51.912,face_recognition_ERP_protocol,2022.2.5,59.98444003621342,
Celebs/15_Margot_Robbie_0005.jpg,non_target,3,0,3,0,0,27,27,80,,,,,,,,,,,,,,591.9536017,591.9536017,592.4534043999997,,,,,,2,0010,25,sentadosom,2023-06-21_18h17.51.912,face_recognition_ERP_protocol,2022.2.5,59.98444003621342,
Celebs/19_Emma_Stone_0006.jpg,non_target,3,0,3,0,0,28,28,66,,,,,,,,,,,,,,592.9548107,592.9548107,593.4544501,,,,,,2,0010,25,sentadosom,2023-06-21_18h17.51.912,face_recognition_ERP_protocol,2022.2.5,59.98444003621342,
Celebs/49_Johnny_Depp_0013.jpg,non_target,3,0,3,0,0,29,29,33,,,,,,,,,,,,,,593.9391618999998,593.9391618999998,594.4388798999998,,,,,,2,0010,25,sentadosom,2023-06-21_18h17.51.912,face_recognition_ERP_protocol,2022.2.5,59.98444003621342,
Celebs/17_Margot_Robbie_0012.jpg,non_target,3,0,3,0,0,30,30,67,,,,,,,,,,,,,,594.9402031999998,594.9402031999998,595.4400072999997,,,,,,2,0010,25,sentadosom,2023-06-21_18h17.51.912,face_recognition_ERP_protocol,2022.2.5,59.98444003621342,
Celebs/50_Johnny_Depp_0004.jpg,non_target,3,0,3,0,0,31,31,39,,,,,,,,,,,,,,595.9413347999998,595.9413347999998,596.4410982999998,,,,,,2,0010,25,sentadosom,2023-06-21_18h17.51.912,face_recognition_ERP_protocol,2022.2.5,59.98444003621342,
Celebs/50_Johnny_Depp_0008.jpg,non_target,3,0,3,0,0,32,32,84,,,,,,,,,,,,,,596.9424426999999,596.9424426999999,597.4421598999998,,,,,,2,0010,25,sentadosom,2023-06-21_18h17.51.912,face_recognition_ERP_protocol,2022.2.5,59.98444003621342,
Celebs/24_Emma_Stone_0015.jpg,non_target,3,0,3,0,0,33,33,57,,,,,,,,,,,,,,597.9435310999997,597.9435310999997,598.4432767999997,,,,,,2,0010,25,sentadosom,2023-06-21_18h17.51.912,face_recognition_ERP_protocol,2022.2.5,59.98444003621342,
Celebs/14_Emma_Watson_0013.jpg,non_target,3,0,3,0,0,34,34,20,,,,,,,,,,,,,,598.9446130000001,598.9446130000001,599.4443851999999,,,,,,2,0010,25,sentadosom,2023-06-21_18h17.51.912,face_recognition_ERP_protocol,2022.2.5,59.98444003621342,
Celebs/21_Scarlett_Johansson_0007.jpg,non_target,3,0,3,0,0,35,35,118,,,,,,,,,,,,,,599.9456855999997,599.9456855999997,600.4454671999997,,,,,,2,0010,25,sentadosom,2023-06-21_18h17.51.912,face_recognition_ERP_protocol,2022.2.5,59.98444003621342,
Celebs/19_Margot_Robbie_0001.jpg,non_target,3,0,3,0,0,36,36,51,,,,,,,,,,,,,,600.9467368999999,600.9467368999999,601.4466524999998,,,,,,2,0010,25,sentadosom,2023-06-21_18h17.51.912,face_recognition_ERP_protocol,2022.2.5,59.98444003621342,
Celebs/39_Jim_Parsons_0004.jpg,non_target,3,0,3,0,0,37,37,88,,,,,,,,,,,,,,601.9484273999997,601.9484273999997,602.4479962,,,,,,2,0010,25,sentadosom,2023-06-21_18h17.51.912,face_recognition_ERP_protocol,2022.2.5,59.98444003621342,
Celebs/14_Emma_Watson_0008.jpg,non_target,3,0,3,0,0,38,38,36,,,,,,,,,,,,,,602.9492436,602.9492436,603.4490415,,,,,,2,0010,25,sentadosom,2023-06-21_18h17.51.912,face_recognition_ERP_protocol,2022.2.5,59.98444003621342,
Celebs/50_Johnny_Depp_0010.jpg,non_target,3,0,3,0,0,39,39,115,,,,,,,,,,,,,,603.9502969,603.9502969,604.4503710999998,,,,,,2,0010,25,sentadosom,2023-06-21_18h17.51.912,face_recognition_ERP_protocol,2022.2.5,59.98444003621342,
Celebs/21_Emma_Stone_0002.jpg,non_target,3,0,3,0,0,40,40,103,,,,,,,,,,,,,,604.9641770999997,604.9641770999997,605.4480954,,,,,,2,0010,25,sentadosom,2023-06-21_18h17.51.912,face_recognition_ERP_protocol,2022.2.5,59.98444003621342,
Celebs/26_Scarlett_Johansson_0003.jpg,non_target,3,0,3,0,0,41,41,105,,,,,,,,,,,,,,605.9478291,605.9478291,606.4491832999997,,,,,,2,0010,25,sentadosom,2023-06-21_18h17.51.912,face_recognition_ERP_protocol,2022.2.5,59.98444003621342,
Celebs/50_Johnny_Depp_0018.jpg,non_target,3,0,3,0,0,42,42,24,,,,,,,,,,,,,,606.9498997000001,606.9498997000001,607.450221,,,,,,2,0010,25,sentadosom,2023-06-21_18h17.51.912,face_recognition_ERP_protocol,2022.2.5,59.98444003621342,
Celebs/52_Jackie_Chan_0002.jpg,non_target,3,0,3,0,0,43,43,68,,,,,,,,,,,,,,607.9509985999998,607.9509985999998,608.4512009,,,,,,2,0010,25,sentadosom,2023-06-21_18h17.51.912,face_recognition_ERP_protocol,2022.2.5,59.98444003621342,
Celebs/43_Will_Smith_0010.jpg,non_target,3,0,3,0,0,44,44,22,,,,,,,,,,,,,,608.9521055,608.9521055,609.4525657999998,,,,,,2,0010,25,sentadosom,2023-06-21_18h17.51.912,face_recognition_ERP_protocol,2022.2.5,59.98444003621342,
Celebs/50_Jackie_Chan_0014.jpg,non_target,3,0,3,0,0,45,45,38,,,,,,,,,,,,,,609.9532928999997,609.9532928999997,610.4534865,,,,,,2,0010,25,sentadosom,2023-06-21_18h17.51.912,face_recognition_ERP_protocol,2022.2.5,59.98444003621342,
Celebs/22_Emma_Watson_0001.jpg,non_target,3,0,3,0,0,46,46,58,,,,,,,,,,,,,,610.9543089999997,610.9543089999997,611.4547201,,,,,,2,0010,25,sentadosom,2023-06-21_18h17.51.912,face_recognition_ERP_protocol,2022.2.5,59.98444003621342,
Celebs/55_Jackie_Chan_0008.jpg,non_target,3,0,3,0,0,47,47,92,,,,,,,,,,,,,,611.9556528999997,611.9556528999997,612.4546664999998,,,,,,2,0010,25,sentadosom,2023-06-21_18h17.51.912,face_recognition_ERP_protocol,2022.2.5,59.98444003621342,
Celebs/17_Margot_Robbie_0014.jpg,non_target,3,0,3,0,0,48,48,114,,,,,,,,,,,,,,612.9382209999999,612.9382209999999,613.4389977999999,,,,,,2,0010,25,sentadosom,2023-06-21_18h17.51.912,face_recognition_ERP_protocol,2022.2.5,59.98444003621342,
Celebs/24_Scarlett_Johansson_0001.jpg,non_target,3,0,3,0,0,49,49,10,,,,,,,,,,,,,,613.9394011999998,613.9394011999998,614.4401251999998,,,,,,2,0010,25,sentadosom,2023-06-21_18h17.51.912,face_recognition_ERP_protocol,2022.2.5,59.98444003621342,
Celebs/33_Neil_Patrick_Harris_0011.jpg,non_target,3,0,3,0,0,50,50,112,,,,,,,,,,,,,,614.9403865999998,614.9403865999998,615.4411365000001,,,,,,2,0010,25,sentadosom,2023-06-21_18h17.51.912,face_recognition_ERP_protocol,2022.2.5,59.98444003621342,
Celebs/48_Johnny_Depp_0001.jpg,non_target,3,0,3,0,0,51,51,106,,,,,,,,,,,,,,615.9414409000001,615.9414409000001,616.4422406999997,,,,,,2,0010,25,sentadosom,2023-06-21_18h17.51.912,face_recognition_ERP_protocol,2022.2.5,59.98444003621342,
Celebs/36_Jim_Parsons_0011.jpg,non_target,3,0,3,0,0,52,52,86,,,,,,,,,,,,,,616.942747,616.942747,617.4433246999997,,,,,,2,0010,25,sentadosom,2023-06-21_18h17.51.912,face_recognition_ERP_protocol,2022.2.5,59.98444003621342,
Celebs/39_Jim_Parsons_0008.jpg,non_target,3,0,3,0,0,53,53,89,,,,,,,,,,,,,,617.9437367999999,617.9437367999999,618.4444089999997,,,,,,2,0010,25,sentadosom,2023-06-21_18h17.51.912,face_recognition_ERP_protocol,2022.2.5,59.98444003621342,
Celebs/20_Emma_Stone_0005.jpg,non_target,3,0,3,0,0,54,54,63,,,,,,,,,,,,,,618.9449354999997,618.9449354999997,619.4454904999998,,,,,,2,0010,25,sentadosom,2023-06-21_18h17.51.912,face_recognition_ERP_protocol,2022.2.5,59.98444003621342,
Celebs/22_Emma_Watson_0003.jpg,non_target,3,0,3,0,0,55,55,91,,,,,,,,,,,,,,619.9458623999999,619.9458623999999,620.4466361,,,,,,2,0010,25,sentadosom,2023-06-21_18h17.51.912,face_recognition_ERP_protocol,2022.2.5,59.98444003621342,
Celebs/14_Emma_Watson_0004.jpg,non_target,3,0,3,0,0,56,56,14,,,,,,,,,,,,,,620.9469282,620.9469282,621.4477269999998,,,,,,2,0010,25,sentadosom,2023-06-21_18h17.51.912,face_recognition_ERP_protocol,2022.2.5,59.98444003621342,
Celebs/39_Jim_Parsons_0010.jpg,non_target,3,0,3,0,0,57,57,0,,,,,,,,,,,,,,621.9482035000001,621.9482035000001,622.4487678999999,,,,,,2,0010,25,sentadosom,2023-06-21_18h17.51.912,face_recognition_ERP_protocol,2022.2.5,59.98444003621342,
