image,stimulus,trial_block.thisRepN,trial_block.thisTrialN,trial_block.thisN,trial_block.thisIndex,trials.thisRepN,trials.thisTrialN,trials.thisN,trials.thisIndex,welcome_text.started,instructions_text.started,spacebar_key.started,spacebar_key.keys,spacebar_key.rt,eye_text.started,eye_text.stopped,text.started,text.stopped,closedEyes_text.started,beep.started,closedEyes_text.stopped,trialImage.started,polygon.started,blank_text.started,trialBlockText.started,new_trialblock.started,new_trialblock.keys,new_trialblock.rt,goodbye_text.started,participant,session,age,gender,date,expName,psychopyVersion,frameRate,
,,,,,,,,,,49.17806040000005,51.180425300000024,51.180425300000024,space,45.26086489999989,,,,,,,,,,,,,,,,2,001,21,Male,2023-04-28_11h28.31.679,face_recognition_ERP_protocol,2022.2.5,59.960306277113006,
Celebs/47_Johnny_Depp_0004.jpg,non_target,0,0,0,0,0,0,0,98,,,,,,96.4630616999998,111.46278159999974,111.46278159999974,126.46256790000007,126.46256790000007,141.46241952000005,141.4626605999997,141.5622556999997,141.5622556999997,141.99618139999984,,,,,,2,001,21,Male,2023-04-28_11h28.31.679,face_recognition_ERP_protocol,2022.2.5,59.960306277113006,
Celebs/17_Daniel_Radcliffe_0007.jpg,target,0,0,0,0,0,1,1,12,,,,,,,,,,,,,142.49656819999973,142.49656819999973,142.98059479999984,,,,,,2,001,21,Male,2023-04-28_11h28.31.679,face_recognition_ERP_protocol,2022.2.5,59.960306277113006,
Celebs/18_Daniel_Radcliffe_0008.jpg,target,0,0,0,0,0,2,2,19,,,,,,,,,,,,,143.48094889999993,143.48094889999993,143.98150639999994,,,,,,2,001,21,Male,2023-04-28_11h28.31.679,face_recognition_ERP_protocol,2022.2.5,59.960306277113006,
Celebs/55_Jackie_Chan_0008.jpg,non_target,0,0,0,0,0,3,3,115,,,,,,,,,,,,,144.4821105000001,144.4821105000001,144.98261879999973,,,,,,2,001,21,Male,2023-04-28_11h28.31.679,face_recognition_ERP_protocol,2022.2.5,59.960306277113006,
Celebs/21_Margot_Robbie_0003.jpg,non_target,0,0,0,0,0,4,4,37,,,,,,,,,,,,,145.50005800000008,145.50005800000008,145.98382489999995,,,,,,2,001,21,Male,2023-04-28_11h28.31.679,face_recognition_ERP_protocol,2022.2.5,59.960306277113006,
Celebs/57_Jackie_Chan_0008.jpg,non_target,0,0,0,0,0,5,5,117,,,,,,,,,,,,,146.48456859999988,146.48456859999988,146.98490479999964,,,,,,2,001,21,Male,2023-04-28_11h28.31.679,face_recognition_ERP_protocol,2022.2.5,59.960306277113006,
Celebs/39_Neil_Patrick_Harris_0010.jpg,non_target,0,0,0,0,0,6,6,83,,,,,,,,,,,,,147.5020316,147.5020316,147.9859431,,,,,,2,001,21,Male,2023-04-28_11h28.31.679,face_recognition_ERP_protocol,2022.2.5,59.960306277113006,
Celebs/31_Neil_Patrick_Harris_0008.jpg,non_target,0,0,0,0,0,7,7,60,,,,,,,,,,,,,148.48706779999975,148.48706779999975,148.9871433999997,,,,,,2,001,21,Male,2023-04-28_11h28.31.679,face_recognition_ERP_protocol,2022.2.5,59.960306277113006,
Celebs/36_Neil_Patrick_Harris_0007.jpg,non_target,0,0,0,0,0,8,8,70,,,,,,,,,,,,,149.48750560000008,149.48750560000008,149.9883166999998,,,,,,2,001,21,Male,2023-04-28_11h28.31.679,face_recognition_ERP_protocol,2022.2.5,59.960306277113006,
Celebs/25_Scarlett_Johansson_0010.jpg,non_target,0,0,0,0,0,9,9,53,,,,,,,,,,,,,150.50541459999977,150.50541459999977,150.98934519999966,,,,,,2,001,21,Male,2023-04-28_11h28.31.679,face_recognition_ERP_protocol,2022.2.5,59.960306277113006,
Celebs/17_Emma_Watson_0006.jpg,non_target,0,0,0,0,0,10,10,13,,,,,,,,,,,,,151.48971219999976,151.48971219999976,151.99039119999998,,,,,,2,001,21,Male,2023-04-28_11h28.31.679,face_recognition_ERP_protocol,2022.2.5,59.960306277113006,
Celebs/20_Scarlett_Johansson_0011.jpg,non_target,0,0,0,0,0,11,11,29,,,,,,,,,,,,,152.49283909999986,152.49283909999986,152.99157269999978,,,,,,2,001,21,Male,2023-04-28_11h28.31.679,face_recognition_ERP_protocol,2022.2.5,59.960306277113006,
Celebs/38_Jim_Parsons_0003.jpg,non_target,0,0,0,0,0,12,12,75,,,,,,,,,,,,,153.4920247,153.4920247,153.99248809999972,,,,,,2,001,21,Male,2023-04-28_11h28.31.679,face_recognition_ERP_protocol,2022.2.5,59.960306277113006,
Celebs/50_Johnny_Depp_0004.jpg,non_target,0,0,0,0,0,13,13,106,,,,,,,,,,,,,154.49330539999983,154.49330539999983,154.99366800000007,,,,,,2,001,21,Male,2023-04-28_11h28.31.679,face_recognition_ERP_protocol,2022.2.5,59.960306277113006,
Celebs/22_Emma_Watson_0001.jpg,non_target,0,0,0,0,0,14,14,40,,,,,,,,,,,,,155.49433129999989,155.49433129999989,155.99482829999988,,,,,,2,001,21,Male,2023-04-28_11h28.31.679,face_recognition_ERP_protocol,2022.2.5,59.960306277113006,
Celebs/22_Emma_Watson_0003.jpg,non_target,0,0,0,0,0,15,15,41,,,,,,,,,,,,,156.49570700000004,156.49570700000004,156.99583129999974,,,,,,2,001,21,Male,2023-04-28_11h28.31.679,face_recognition_ERP_protocol,2022.2.5,59.960306277113006,
Celebs/14_Emma_Watson_0005.jpg,non_target,0,0,0,0,0,16,16,1,,,,,,,,,,,,,157.49629499999992,157.49629499999992,157.99690869999995,,,,,,2,001,21,Male,2023-04-28_11h28.31.679,face_recognition_ERP_protocol,2022.2.5,59.960306277113006,
Celebs/26_Scarlett_Johansson_0003.jpg,non_target,0,0,0,0,0,17,17,54,,,,,,,,,,,,,158.48265999999967,158.48265999999967,158.9815447000001,,,,,,2,001,21,Male,2023-04-28_11h28.31.679,face_recognition_ERP_protocol,2022.2.5,59.960306277113006,
Celebs/50_Jackie_Chan_0014.jpg,non_target,0,0,0,0,0,18,18,105,,,,,,,,,,,,,159.49875199999997,159.49875199999997,159.98261849999972,,,,,,2,001,21,Male,2023-04-28_11h28.31.679,face_recognition_ERP_protocol,2022.2.5,59.960306277113006,
Celebs/54_Jackie_Chan_0014.jpg,non_target,0,0,0,0,0,19,19,113,,,,,,,,,,,,,160.48544439999978,160.48544439999978,160.98394449999978,,,,,,2,001,21,Male,2023-04-28_11h28.31.679,face_recognition_ERP_protocol,2022.2.5,59.960306277113006,
Celebs/37_Neil_Patrick_Harris_0010.jpg,non_target,0,0,0,0,0,20,20,72,,,,,,,,,,,,,161.4882045999998,161.4882045999998,161.9850710999999,,,,,,2,001,21,Male,2023-04-28_11h28.31.679,face_recognition_ERP_protocol,2022.2.5,59.960306277113006,
Celebs/15_Margot_Robbie_0005.jpg,non_target,0,0,0,0,0,21,21,5,,,,,,,,,,,,,162.5021953999999,162.5021953999999,162.98602149999988,,,,,,2,001,21,Male,2023-04-28_11h28.31.679,face_recognition_ERP_protocol,2022.2.5,59.960306277113006,
Celebs/48_Johnny_Depp_0001.jpg,non_target,0,0,0,0,0,22,22,100,,,,,,,,,,,,,163.50322019999976,163.50322019999976,163.9871291999998,,,,,,2,001,21,Male,2023-04-28_11h28.31.679,face_recognition_ERP_protocol,2022.2.5,59.960306277113006,
Celebs/36_Jim_Parsons_0011.jpg,non_target,0,0,0,0,0,23,23,69,,,,,,,,,,,,,164.50439509999978,164.50439509999978,164.9882223999998,,,,,,2,001,21,Male,2023-04-28_11h28.31.679,face_recognition_ERP_protocol,2022.2.5,59.960306277113006,
Celebs/14_Emma_Watson_0008.jpg,non_target,0,0,0,0,0,24,24,2,,,,,,,,,,,,,165.5054971999998,165.5054971999998,165.98921169999994,,,,,,2,001,21,Male,2023-04-28_11h28.31.679,face_recognition_ERP_protocol,2022.2.5,59.960306277113006,
Celebs/16_Emma_Stone_0008.jpg,non_target,0,0,0,0,0,25,25,7,,,,,,,,,,,,,166.5065854999998,166.5065854999998,166.99032549999993,,,,,,2,001,21,Male,2023-04-28_11h28.31.679,face_recognition_ERP_protocol,2022.2.5,59.960306277113006,
Celebs/26_Scarlett_Johansson_0008.jpg,non_target,0,0,0,0,0,26,26,55,,,,,,,,,,,,,167.5074980999998,167.5074980999998,167.99150259999988,,,,,,2,001,21,Male,2023-04-28_11h28.31.679,face_recognition_ERP_protocol,2022.2.5,59.960306277113006,
Celebs/35_Neil_Patrick_Harris_0009.jpg,non_target,0,0,0,0,0,27,27,68,,,,,,,,,,,,,168.50871499999994,168.50871499999994,168.9926148999998,,,,,,2,001,21,Male,2023-04-28_11h28.31.679,face_recognition_ERP_protocol,2022.2.5,59.960306277113006,
Celebs/21_Scarlett_Johansson_0007.jpg,non_target,0,0,0,0,0,28,28,38,,,,,,,,,,,,,169.50959250000005,169.50959250000005,169.9936058999997,,,,,,2,001,21,Male,2023-04-28_11h28.31.679,face_recognition_ERP_protocol,2022.2.5,59.960306277113006,
Celebs/42_Will_Smith_0012.jpg,non_target,0,0,0,0,0,29,29,87,,,,,,,,,,,,,170.5108937,170.5108937,170.9946227999999,,,,,,2,001,21,Male,2023-04-28_11h28.31.679,face_recognition_ERP_protocol,2022.2.5,59.960306277113006,
Celebs/20_Emma_Watson_0007.jpg,non_target,0,0,0,0,0,30,30,26,,,,,,,,,,,,,171.4950561999999,171.4950561999999,171.99555839999994,,,,,,2,001,21,Male,2023-04-28_11h28.31.679,face_recognition_ERP_protocol,2022.2.5,59.960306277113006,
Celebs/45_Will_Smith_0014.jpg,non_target,0,0,0,0,0,31,31,96,,,,,,,,,,,,,172.49605599999995,172.49605599999995,172.99675519999982,,,,,,2,001,21,Male,2023-04-28_11h28.31.679,face_recognition_ERP_protocol,2022.2.5,59.960306277113006,
Celebs/58_Jackie_Chan_0005.jpg,non_target,0,0,0,0,0,32,32,119,,,,,,,,,,,,,173.4972101999997,173.4972101999997,173.98114439999972,,,,,,2,001,21,Male,2023-04-28_11h28.31.679,face_recognition_ERP_protocol,2022.2.5,59.960306277113006,
Celebs/29_Scarlett_Johansson_0016.jpg,non_target,0,0,0,0,0,33,33,59,,,,,,,,,,,,,174.48157559999981,174.48157559999981,174.9822267999998,,,,,,2,001,21,Male,2023-04-28_11h28.31.679,face_recognition_ERP_protocol,2022.2.5,59.960306277113006,
Celebs/21_Daniel_Radcliffe_0002.jpg,target,0,0,0,0,0,34,34,30,,,,,,,,,,,,,175.48264040000004,175.48264040000004,175.98331800000005,,,,,,2,001,21,Male,2023-04-28_11h28.31.679,face_recognition_ERP_protocol,2022.2.5,59.960306277113006,
Celebs/16_Emma_Stone_0010.jpg,non_target,0,0,0,0,0,35,35,8,,,,,,,,,,,,,176.48376299999973,176.48376299999973,176.98438799999985,,,,,,2,001,21,Male,2023-04-28_11h28.31.679,face_recognition_ERP_protocol,2022.2.5,59.960306277113006,
Celebs/23_Emma_Stone_0014.jpg,non_target,0,0,0,0,0,36,36,48,,,,,,,,,,,,,177.50246620000007,177.50246620000007,177.98556899999994,,,,,,2,001,21,Male,2023-04-28_11h28.31.679,face_recognition_ERP_protocol,2022.2.5,59.960306277113006,
Celebs/39_Jim_Parsons_0004.jpg,non_target,0,0,0,0,0,37,37,79,,,,,,,,,,,,,178.50266190000002,178.50266190000002,178.98660100000006,,,,,,2,001,21,Male,2023-04-28_11h28.31.679,face_recognition_ERP_protocol,2022.2.5,59.960306277113006,
Celebs/29_Scarlett_Johansson_0010.jpg,non_target,0,0,0,0,0,38,38,58,,,,,,,,,,,,,179.48915429999988,179.48915429999988,179.9878389999999,,,,,,2,001,21,Male,2023-04-28_11h28.31.679,face_recognition_ERP_protocol,2022.2.5,59.960306277113006,
Celebs/18_Emma_Stone_0016.jpg,non_target,0,0,0,0,0,39,39,20,,,,,,,,,,,,,180.48844089999966,180.48844089999966,180.9889721999998,,,,,,2,001,21,Male,2023-04-28_11h28.31.679,face_recognition_ERP_protocol,2022.2.5,59.960306277113006,
Celebs/17_Margot_Robbie_0014.jpg,non_target,0,0,0,0,0,40,40,16,,,,,,,,,,,,,181.49024400000008,181.49024400000008,181.98988979999967,,,,,,2,001,21,Male,2023-04-28_11h28.31.679,face_recognition_ERP_protocol,2022.2.5,59.960306277113006,
Celebs/44_Will_Smith_0007.jpg,non_target,0,0,0,0,0,41,41,92,,,,,,,,,,,,,182.49049399999967,182.49049399999967,182.99112659999992,,,,,,2,001,21,Male,2023-04-28_11h28.31.679,face_recognition_ERP_protocol,2022.2.5,59.960306277113006,
Celebs/19_Emma_Stone_0006.jpg,non_target,0,0,0,0,0,42,42,22,,,,,,,,,,,,,183.4919249999998,183.4919249999998,183.9922732,,,,,,2,001,21,Male,2023-04-28_11h28.31.679,face_recognition_ERP_protocol,2022.2.5,59.960306277113006,
Celebs/38_Neil_Patrick_Harris_0006.jpg,non_target,0,0,0,0,0,43,43,76,,,,,,,,,,,,,184.49268419999999,184.49268419999999,184.99321889999965,,,,,,2,001,21,Male,2023-04-28_11h28.31.679,face_recognition_ERP_protocol,2022.2.5,59.960306277113006,
Celebs/20_Margot_Robbie_0006.jpg,non_target,0,0,0,0,0,44,44,28,,,,,,,,,,,,,185.4943586999998,185.4943586999998,185.99440950000007,,,,,,2,001,21,Male,2023-04-28_11h28.31.679,face_recognition_ERP_protocol,2022.2.5,59.960306277113006,
Celebs/20_Emma_Stone_0005.jpg,non_target,0,0,0,0,0,45,45,25,,,,,,,,,,,,,186.49482689999968,186.49482689999968,186.99538110000003,,,,,,2,001,21,Male,2023-04-28_11h28.31.679,face_recognition_ERP_protocol,2022.2.5,59.960306277113006,
Celebs/20_Margot_Robbie_0004.jpg,non_target,0,0,0,0,0,46,46,27,,,,,,,,,,,,,187.49773849999974,187.49773849999974,187.99657539999998,,,,,,2,001,21,Male,2023-04-28_11h28.31.679,face_recognition_ERP_protocol,2022.2.5,59.960306277113006,
Celebs/55_Jackie_Chan_0015.jpg,non_target,0,0,0,0,0,47,47,116,,,,,,,,,,,,,188.48206189999974,188.48206189999974,188.98105110000006,,,,,,2,001,21,Male,2023-04-28_11h28.31.679,face_recognition_ERP_protocol,2022.2.5,59.960306277113006,
Celebs/39_Jim_Parsons_0010.jpg,non_target,0,0,0,0,0,48,48,81,,,,,,,,,,,,,189.48137419999966,189.48137419999966,189.9820623999999,,,,,,2,001,21,Male,2023-04-28_11h28.31.679,face_recognition_ERP_protocol,2022.2.5,59.960306277113006,
Celebs/40_Jim_Parsons_0015.jpg,non_target,0,0,0,0,0,49,49,85,,,,,,,,,,,,,190.48546420000002,190.48546420000002,190.98327149999977,,,,,,2,001,21,Male,2023-04-28_11h28.31.679,face_recognition_ERP_protocol,2022.2.5,59.960306277113006,
Celebs/47_Johnny_Depp_0003.jpg,non_target,0,0,0,0,0,50,50,97,,,,,,,,,,,,,191.48524199999974,191.48524199999974,191.9842303999999,,,,,,2,001,21,Male,2023-04-28_11h28.31.679,face_recognition_ERP_protocol,2022.2.5,59.960306277113006,
Celebs/16_Emma_Stone_0014.jpg,non_target,0,0,0,0,0,51,51,10,,,,,,,,,,,,,192.48519729999998,192.48519729999998,192.9853177,,,,,,2,001,21,Male,2023-04-28_11h28.31.679,face_recognition_ERP_protocol,2022.2.5,59.960306277113006,
Celebs/21_Daniel_Radcliffe_0008.jpg,target,0,0,0,0,0,52,52,31,,,,,,,,,,,,,193.48695279999993,193.48695279999993,193.98642399999972,,,,,,2,001,21,Male,2023-04-28_11h28.31.679,face_recognition_ERP_protocol,2022.2.5,59.960306277113006,
Celebs/24_Daniel_Radcliffe_0017.jpg,target,0,0,0,0,0,53,53,49,,,,,,,,,,,,,194.48837890000004,194.48837890000004,194.98761749999994,,,,,,2,001,21,Male,2023-04-28_11h28.31.679,face_recognition_ERP_protocol,2022.2.5,59.960306277113006,
Celebs/44_Will_Smith_0006.jpg,non_target,0,0,0,0,0,54,54,91,,,,,,,,,,,,,195.48960469999975,195.48960469999975,195.98866419999968,,,,,,2,001,21,Male,2023-04-28_11h28.31.679,face_recognition_ERP_protocol,2022.2.5,59.960306277113006,
Celebs/45_Will_Smith_0010.jpg,non_target,0,0,0,0,0,55,55,95,,,,,,,,,,,,,196.48909129999993,196.48909129999993,196.98978129999978,,,,,,2,001,21,Male,2023-04-28_11h28.31.679,face_recognition_ERP_protocol,2022.2.5,59.960306277113006,
Celebs/38_Will_Smith_0013.jpg,non_target,0,0,0,0,0,56,56,77,,,,,,,,,,,,,197.49231459999964,197.49231459999964,197.9908172999999,,,,,,2,001,21,Male,2023-04-28_11h28.31.679,face_recognition_ERP_protocol,2022.2.5,59.960306277113006,
Celebs/57_Jackie_Chan_0010.jpg,non_target,0,0,0,0,0,57,57,118,,,,,,,,,,,,,198.4911090999999,198.4911090999999,198.99192289999974,,,,,,2,001,21,Male,2023-04-28_11h28.31.679,face_recognition_ERP_protocol,2022.2.5,59.960306277113006,
Celebs/32_Jim_Parsons_0016.jpg,non_target,0,0,0,0,0,58,58,62,,,,,,,,,,,,,199.49492689999988,199.49492689999988,199.99311450000005,,,,,,2,001,21,Male,2023-04-28_11h28.31.679,face_recognition_ERP_protocol,2022.2.5,59.960306277113006,
Celebs/33_Neil_Patrick_Harris_0011.jpg,non_target,0,0,0,0,0,59,59,65,,,,,,,,,,,,,200.49506229999997,200.49506229999997,200.9942702999997,,,,,,2,001,21,Male,2023-04-28_11h28.31.679,face_recognition_ERP_protocol,2022.2.5,59.960306277113006,
Celebs/34_Neil_Patrick_Harris_0004.jpg,non_target,0,0,0,0,0,60,60,66,,,,,,,,,,,,,201.49453659999972,201.49453659999972,201.99514210000007,,,,,,2,001,21,Male,2023-04-28_11h28.31.679,face_recognition_ERP_protocol,2022.2.5,59.960306277113006,
Celebs/19_Margot_Robbie_0004.jpg,non_target,0,0,0,0,0,61,61,24,,,,,,,,,,,,,202.5122177999997,202.5122177999997,202.99618869999995,,,,,,2,001,21,Male,2023-04-28_11h28.31.679,face_recognition_ERP_protocol,2022.2.5,59.960306277113006,
Celebs/32_Jim_Parsons_0018.jpg,non_target,0,0,0,0,0,62,62,63,,,,,,,,,,,,,203.4966319,203.4966319,203.98058059999994,,,,,,2,001,21,Male,2023-04-28_11h28.31.679,face_recognition_ERP_protocol,2022.2.5,59.960306277113006,
Celebs/22_Margot_Robbie_0010.jpg,non_target,0,0,0,0,0,63,63,43,,,,,,,,,,,,,204.48163889999978,204.48163889999978,204.98165139999992,,,,,,2,001,21,Male,2023-04-28_11h28.31.679,face_recognition_ERP_protocol,2022.2.5,59.960306277113006,
Celebs/54_Jackie_Chan_0001.jpg,non_target,0,0,0,0,0,64,64,112,,,,,,,,,,,,,205.51565600000004,205.51565600000004,205.98295139999982,,,,,,2,001,21,Male,2023-04-28_11h28.31.679,face_recognition_ERP_protocol,2022.2.5,59.960306277113006,
Celebs/43_Will_Smith_0006.jpg,non_target,0,0,0,0,0,65,65,88,,,,,,,,,,,,,206.48315719999982,206.48315719999982,206.9839434999999,,,,,,2,001,21,Male,2023-04-28_11h28.31.679,face_recognition_ERP_protocol,2022.2.5,59.960306277113006,
Celebs/21_Daniel_Radcliffe_0012.jpg,target,0,0,0,0,0,66,66,33,,,,,,,,,,,,,207.48546839999972,207.48546839999972,207.9848422,,,,,,2,001,21,Male,2023-04-28_11h28.31.679,face_recognition_ERP_protocol,2022.2.5,59.960306277113006,
Celebs/23_Daniel_Radcliffe_0019.jpg,target,0,0,0,0,0,67,67,47,,,,,,,,,,,,,208.48544009999978,208.48544009999978,208.98591970000007,,,,,,2,001,21,Male,2023-04-28_11h28.31.679,face_recognition_ERP_protocol,2022.2.5,59.960306277113006,
Celebs/44_Will_Smith_0015.jpg,non_target,0,0,0,0,0,68,68,93,,,,,,,,,,,,,209.48660549999977,209.48660549999977,209.98709229999986,,,,,,2,001,21,Male,2023-04-28_11h28.31.679,face_recognition_ERP_protocol,2022.2.5,59.960306277113006,
Celebs/39_Jim_Parsons_0001.jpg,non_target,0,0,0,0,0,69,69,78,,,,,,,,,,,,,210.48826199999985,210.48826199999985,210.98823319999974,,,,,,2,001,21,Male,2023-04-28_11h28.31.679,face_recognition_ERP_protocol,2022.2.5,59.960306277113006,
Celebs/18_Daniel_Radcliffe_0007.jpg,target,0,0,0,0,0,70,70,18,,,,,,,,,,,,,211.48852989999978,211.48852989999978,211.9892663999999,,,,,,2,001,21,Male,2023-04-28_11h28.31.679,face_recognition_ERP_protocol,2022.2.5,59.960306277113006,
Celebs/23_Daniel_Radcliffe_0010.jpg,target,0,0,0,0,0,71,71,46,,,,,,,,,,,,,212.48975029999974,212.48975029999974,212.99038070000006,,,,,,2,001,21,Male,2023-04-28_11h28.31.679,face_recognition_ERP_protocol,2022.2.5,59.960306277113006,
Celebs/22_Scarlett_Johansson_0005.jpg,non_target,0,0,0,0,0,72,72,44,,,,,,,,,,,,,213.4919844000001,213.4919844000001,213.99148879999984,,,,,,2,001,21,Male,2023-04-28_11h28.31.679,face_recognition_ERP_protocol,2022.2.5,59.960306277113006,
Celebs/14_Emma_Watson_0015.jpg,non_target,0,0,0,0,0,73,73,4,,,,,,,,,,,,,214.4924934999999,214.4924934999999,214.9925275999999,,,,,,2,001,21,Male,2023-04-28_11h28.31.679,face_recognition_ERP_protocol,2022.2.5,59.960306277113006,
Celebs/21_Emma_Stone_0003.jpg,non_target,0,0,0,0,0,74,74,35,,,,,,,,,,,,,215.49408079999967,215.49408079999967,215.9937157999998,,,,,,2,001,21,Male,2023-04-28_11h28.31.679,face_recognition_ERP_protocol,2022.2.5,59.960306277113006,
Celebs/24_Scarlett_Johansson_0011.jpg,non_target,0,0,0,0,0,75,75,52,,,,,,,,,,,,,216.49532039999985,216.49532039999985,216.99488659999997,,,,,,2,001,21,Male,2023-04-28_11h28.31.679,face_recognition_ERP_protocol,2022.2.5,59.960306277113006,
Celebs/24_Scarlett_Johansson_0001.jpg,non_target,0,0,0,0,0,76,76,51,,,,,,,,,,,,,217.49643119999973,217.49643119999973,217.9958862999997,,,,,,2,001,21,Male,2023-04-28_11h28.31.679,face_recognition_ERP_protocol,2022.2.5,59.960306277113006,
Celebs/16_Emma_Stone_0012.jpg,non_target,0,0,0,0,0,77,77,9,,,,,,,,,,,,,218.49924509999983,218.49924509999983,218.9805683999998,,,,,,2,001,21,Male,2023-04-28_11h28.31.679,face_recognition_ERP_protocol,2022.2.5,59.960306277113006,
Celebs/48_Johnny_Depp_0003.jpg,non_target,0,0,0,0,0,78,78,101,,,,,,,,,,,,,219.48077740000008,219.48077740000008,219.9815561999999,,,,,,2,001,21,Male,2023-04-28_11h28.31.679,face_recognition_ERP_protocol,2022.2.5,59.960306277113006,
Celebs/19_Margot_Robbie_0001.jpg,non_target,0,0,0,0,0,79,79,23,,,,,,,,,,,,,220.4835509999998,220.4835509999998,220.98270550000007,,,,,,2,001,21,Male,2023-04-28_11h28.31.679,face_recognition_ERP_protocol,2022.2.5,59.960306277113006,
Celebs/49_Johnny_Depp_0013.jpg,non_target,0,0,0,0,0,80,80,103,,,,,,,,,,,,,221.48424729999988,221.48424729999988,221.9837223999998,,,,,,2,001,21,Male,2023-04-28_11h28.31.679,face_recognition_ERP_protocol,2022.2.5,59.960306277113006,
Celebs/37_Neil_Patrick_Harris_0014.jpg,non_target,0,0,0,0,0,81,81,73,,,,,,,,,,,,,222.48649769999975,222.48649769999975,222.98477589999993,,,,,,2,001,21,Male,2023-04-28_11h28.31.679,face_recognition_ERP_protocol,2022.2.5,59.960306277113006,
Celebs/17_Margot_Robbie_0006.jpg,non_target,0,0,0,0,0,82,82,14,,,,,,,,,,,,,223.48540309999998,223.48540309999998,223.98598939999965,,,,,,2,001,21,Male,2023-04-28_11h28.31.679,face_recognition_ERP_protocol,2022.2.5,59.960306277113006,
Celebs/14_Emma_Watson_0013.jpg,non_target,0,0,0,0,0,83,83,3,,,,,,,,,,,,,224.5029872,224.5029872,224.98678259999997,,,,,,2,001,21,Male,2023-04-28_11h28.31.679,face_recognition_ERP_protocol,2022.2.5,59.960306277113006,
Celebs/23_Daniel_Radcliffe_0002.jpg,target,0,0,0,0,0,84,84,45,,,,,,,,,,,,,225.48913099999982,225.48913099999982,225.98812369999996,,,,,,2,001,21,Male,2023-04-28_11h28.31.679,face_recognition_ERP_protocol,2022.2.5,59.960306277113006,
Celebs/16_Margot_Robbie_0009.jpg,non_target,0,0,0,0,0,85,85,11,,,,,,,,,,,,,226.4889816,226.4889816,226.98917630000005,,,,,,2,001,21,Male,2023-04-28_11h28.31.679,face_recognition_ERP_protocol,2022.2.5,59.960306277113006,
Celebs/22_Emma_Watson_0010.jpg,non_target,0,0,0,0,0,86,86,42,,,,,,,,,,,,,227.48999950000007,227.48999950000007,227.99036639999986,,,,,,2,001,21,Male,2023-04-28_11h28.31.679,face_recognition_ERP_protocol,2022.2.5,59.960306277113006,
Celebs/39_Neil_Patrick_Harris_0001.jpg,non_target,0,0,0,0,0,87,87,82,,,,,,,,,,,,,228.49090260000003,228.49090260000003,228.99129109999967,,,,,,2,001,21,Male,2023-04-28_11h28.31.679,face_recognition_ERP_protocol,2022.2.5,59.960306277113006,
Celebs/17_Margot_Robbie_0012.jpg,non_target,0,0,0,0,0,88,88,15,,,,,,,,,,,,,229.49397109999973,229.49397109999973,229.99242879999974,,,,,,2,001,21,Male,2023-04-28_11h28.31.679,face_recognition_ERP_protocol,2022.2.5,59.960306277113006,
Celebs/50_Johnny_Depp_0008.jpg,non_target,0,0,0,0,0,89,89,107,,,,,,,,,,,,,230.4927935999999,230.4927935999999,230.9935757999997,,,,,,2,001,21,Male,2023-04-28_11h28.31.679,face_recognition_ERP_protocol,2022.2.5,59.960306277113006,
Celebs/14_Emma_Watson_0004.jpg,non_target,0,0,0,0,0,90,90,0,,,,,,,,,,,,,231.4952328999998,231.4952328999998,231.99457459999985,,,,,,2,001,21,Male,2023-04-28_11h28.31.679,face_recognition_ERP_protocol,2022.2.5,59.960306277113006,
Celebs/43_Will_Smith_0010.jpg,non_target,0,0,0,0,0,91,91,90,,,,,,,,,,,,,232.4972613,232.4972613,232.9957532999997,,,,,,2,001,21,Male,2023-04-28_11h28.31.679,face_recognition_ERP_protocol,2022.2.5,59.960306277113006,
Celebs/50_Johnny_Depp_0010.jpg,non_target,0,0,0,0,0,92,92,108,,,,,,,,,,,,,233.49636340000006,233.49636340000006,233.9969016,,,,,,2,001,21,Male,2023-04-28_11h28.31.679,face_recognition_ERP_protocol,2022.2.5,59.960306277113006,
Celebs/51_Jackie_Chan_0006.jpg,non_target,0,0,0,0,0,93,93,110,,,,,,,,,,,,,234.48059699999976,234.48059699999976,234.9812463999997,,,,,,2,001,21,Male,2023-04-28_11h28.31.679,face_recognition_ERP_protocol,2022.2.5,59.960306277113006,
Celebs/52_Jackie_Chan_0002.jpg,non_target,0,0,0,0,0,94,94,111,,,,,,,,,,,,,235.48179579999987,235.48179579999987,235.98230779999994,,,,,,2,001,21,Male,2023-04-28_11h28.31.679,face_recognition_ERP_protocol,2022.2.5,59.960306277113006,
Celebs/21_Daniel_Radcliffe_0009.jpg,target,0,0,0,0,0,95,95,32,,,,,,,,,,,,,236.48505169999999,236.48505169999999,236.98356149999972,,,,,,2,001,21,Male,2023-04-28_11h28.31.679,face_recognition_ERP_protocol,2022.2.5,59.960306277113006,
Celebs/50_Johnny_Depp_0018.jpg,non_target,0,0,0,0,0,96,96,109,,,,,,,,,,,,,237.48446719999993,237.48446719999993,237.98455809999996,,,,,,2,001,21,Male,2023-04-28_11h28.31.679,face_recognition_ERP_protocol,2022.2.5,59.960306277113006,
Celebs/50_Jackie_Chan_0012.jpg,non_target,0,0,0,0,0,97,97,104,,,,,,,,,,,,,238.48593570000003,238.48593570000003,238.9856924999999,,,,,,2,001,21,Male,2023-04-28_11h28.31.679,face_recognition_ERP_protocol,2022.2.5,59.960306277113006,
Celebs/32_Jim_Parsons_0010.jpg,non_target,0,0,0,0,0,98,98,61,,,,,,,,,,,,,239.4872123,239.4872123,239.98673359999975,,,,,,2,001,21,Male,2023-04-28_11h28.31.679,face_recognition_ERP_protocol,2022.2.5,59.960306277113006,
Celebs/21_Emma_Stone_0002.jpg,non_target,0,0,0,0,0,99,99,34,,,,,,,,,,,,,240.48960390000002,240.48960390000002,240.98791540000002,,,,,,2,001,21,Male,2023-04-28_11h28.31.679,face_recognition_ERP_protocol,2022.2.5,59.960306277113006,
Celebs/37_Will_Smith_0015.jpg,non_target,0,0,0,0,0,100,100,74,,,,,,,,,,,,,241.49076739999964,241.49076739999964,241.98893999999973,,,,,,2,001,21,Male,2023-04-28_11h28.31.679,face_recognition_ERP_protocol,2022.2.5,59.960306277113006,
Celebs/22_Emma_Stone_0013.jpg,non_target,0,0,0,0,0,101,101,39,,,,,,,,,,,,,242.49077399999987,242.49077399999987,242.98995710000008,,,,,,2,001,21,Male,2023-04-28_11h28.31.679,face_recognition_ERP_protocol,2022.2.5,59.960306277113006,
Celebs/21_Emma_Watson_0004.jpg,non_target,0,0,0,0,0,102,102,36,,,,,,,,,,,,,243.49051229999986,243.49051229999986,243.99111779999976,,,,,,2,001,21,Male,2023-04-28_11h28.31.679,face_recognition_ERP_protocol,2022.2.5,59.960306277113006,
Celebs/39_Jim_Parsons_0008.jpg,non_target,0,0,0,0,0,103,103,80,,,,,,,,,,,,,244.49280869999984,244.49280869999984,244.99220369999966,,,,,,2,001,21,Male,2023-04-28_11h28.31.679,face_recognition_ERP_protocol,2022.2.5,59.960306277113006,
Celebs/15_Margot_Robbie_0012.jpg,non_target,0,0,0,0,0,104,104,6,,,,,,,,,,,,,245.4927085999998,245.4927085999998,245.99331690000008,,,,,,2,001,21,Male,2023-04-28_11h28.31.679,face_recognition_ERP_protocol,2022.2.5,59.960306277113006,
Celebs/48_Johnny_Depp_0005.jpg,non_target,0,0,0,0,0,105,105,102,,,,,,,,,,,,,246.4936577999997,246.4936577999997,246.99425900000006,,,,,,2,001,21,Male,2023-04-28_11h28.31.679,face_recognition_ERP_protocol,2022.2.5,59.960306277113006,
Celebs/33_Jim_Parsons_0011.jpg,non_target,0,0,0,0,0,106,106,64,,,,,,,,,,,,,247.4963687999998,247.4963687999998,247.9954617999997,,,,,,2,001,21,Male,2023-04-28_11h28.31.679,face_recognition_ERP_protocol,2022.2.5,59.960306277113006,
Celebs/27_Scarlett_Johansson_0012.jpg,non_target,0,0,0,0,0,107,107,56,,,,,,,,,,,,,248.49746359999972,248.49746359999972,248.99661259999993,,,,,,2,001,21,Male,2023-04-28_11h28.31.679,face_recognition_ERP_protocol,2022.2.5,59.960306277113006,
Celebs/40_Jim_Parsons_0004.jpg,non_target,0,0,0,0,0,108,108,84,,,,,,,,,,,,,249.48113779999994,249.48113779999994,249.98105439999972,,,,,,2,001,21,Male,2023-04-28_11h28.31.679,face_recognition_ERP_protocol,2022.2.5,59.960306277113006,
Celebs/34_Neil_Patrick_Harris_0007.jpg,non_target,0,0,0,0,0,109,109,67,,,,,,,,,,,,,250.48428809999996,250.48428809999996,250.98216569999977,,,,,,2,001,21,Male,2023-04-28_11h28.31.679,face_recognition_ERP_protocol,2022.2.5,59.960306277113006,
Celebs/43_Will_Smith_0007.jpg,non_target,0,0,0,0,0,110,110,89,,,,,,,,,,,,,251.48356319999994,251.48356319999994,251.9831924,,,,,,2,001,21,Male,2023-04-28_11h28.31.679,face_recognition_ERP_protocol,2022.2.5,59.960306277113006,
Celebs/55_Jackie_Chan_0003.jpg,non_target,0,0,0,0,0,111,111,114,,,,,,,,,,,,,252.48394289999987,252.48394289999987,252.98424549999982,,,,,,2,001,21,Male,2023-04-28_11h28.31.679,face_recognition_ERP_protocol,2022.2.5,59.960306277113006,
Celebs/45_Johnny_Depp_0003.jpg,non_target,0,0,0,0,0,112,112,94,,,,,,,,,,,,,253.48479640000005,253.48479640000005,253.98531379999986,,,,,,2,001,21,Male,2023-04-28_11h28.31.679,face_recognition_ERP_protocol,2022.2.5,59.960306277113006,
Celebs/24_Emma_Stone_0015.jpg,non_target,0,0,0,0,0,113,113,50,,,,,,,,,,,,,254.48675809999986,254.48675809999986,254.98651699999982,,,,,,2,001,21,Male,2023-04-28_11h28.31.679,face_recognition_ERP_protocol,2022.2.5,59.960306277113006,
Celebs/47_Johnny_Depp_0009.jpg,non_target,0,0,0,0,0,114,114,99,,,,,,,,,,,,,255.48691469999994,255.48691469999994,255.9877336999998,,,,,,2,001,21,Male,2023-04-28_11h28.31.679,face_recognition_ERP_protocol,2022.2.5,59.960306277113006,
Celebs/36_Neil_Patrick_Harris_0010.jpg,non_target,0,0,0,0,0,115,115,71,,,,,,,,,,,,,256.48851639999975,256.48851639999975,256.98861850000003,,,,,,2,001,21,Male,2023-04-28_11h28.31.679,face_recognition_ERP_protocol,2022.2.5,59.960306277113006,
Celebs/40_Will_Smith_0012.jpg,non_target,0,0,0,0,0,116,116,86,,,,,,,,,,,,,257.48974199999975,257.48974199999975,257.98956759999965,,,,,,2,001,21,Male,2023-04-28_11h28.31.679,face_recognition_ERP_protocol,2022.2.5,59.960306277113006,
Celebs/18_Emma_Watson_0004.jpg,non_target,0,0,0,0,0,117,117,21,,,,,,,,,,,,,258.4920824000001,258.4920824000001,258.9909147999997,,,,,,2,001,21,Male,2023-04-28_11h28.31.679,face_recognition_ERP_protocol,2022.2.5,59.960306277113006,
Celebs/18_Daniel_Radcliffe_0002.jpg,target,0,0,0,0,0,118,118,17,,,,,,,,,,,,,259.49405720000004,259.49405720000004,259.99187519999987,,,,,,2,001,21,Male,2023-04-28_11h28.31.679,face_recognition_ERP_protocol,2022.2.5,59.960306277113006,
Celebs/28_Scarlett_Johansson_0005.jpg,non_target,0,0,0,0,0,119,119,57,,,,,,,,,,,,,260.4940339,260.4940339,260.99299429999974,,,,,,2,001,21,Male,2023-04-28_11h28.31.679,face_recognition_ERP_protocol,2022.2.5,59.960306277113006,
Celebs/20_Margot_Robbie_0006.jpg,non_target,1,0,1,0,0,0,0,28,,,,,,,,,,,,,268.2339189999998,268.2339189999998,268.6844444999997,261.5116463999998,261.5116463999998,space,6.6321938000000955,,2,001,21,Male,2023-04-28_11h28.31.679,face_recognition_ERP_protocol,2022.2.5,59.960306277113006,
Celebs/16_Emma_Stone_0014.jpg,non_target,1,0,1,0,0,1,1,10,,,,,,,,,,,,,269.18517989999964,269.18517989999964,269.6857557999997,,,,,,2,001,21,Male,2023-04-28_11h28.31.679,face_recognition_ERP_protocol,2022.2.5,59.960306277113006,
Celebs/36_Neil_Patrick_Harris_0010.jpg,non_target,1,0,1,0,0,2,2,71,,,,,,,,,,,,,270.18613779999987,270.18613779999987,270.68681590000006,,,,,,2,001,21,Male,2023-04-28_11h28.31.679,face_recognition_ERP_protocol,2022.2.5,59.960306277113006,
Celebs/54_Jackie_Chan_0014.jpg,non_target,1,0,1,0,0,3,3,113,,,,,,,,,,,,,271.1901309,271.1901309,271.6880157999999,,,,,,2,001,21,Male,2023-04-28_11h28.31.679,face_recognition_ERP_protocol,2022.2.5,59.960306277113006,
Celebs/38_Jim_Parsons_0003.jpg,non_target,1,0,1,0,0,4,4,75,,,,,,,,,,,,,272.17175180000004,272.17175180000004,272.6725286000001,,,,,,2,001,21,Male,2023-04-28_11h28.31.679,face_recognition_ERP_protocol,2022.2.5,59.960306277113006,
Celebs/21_Daniel_Radcliffe_0002.jpg,target,1,0,1,0,0,5,5,30,,,,,,,,,,,,,273.17302059999975,273.17302059999975,273.6735872999998,,,,,,2,001,21,Male,2023-04-28_11h28.31.679,face_recognition_ERP_protocol,2022.2.5,59.960306277113006,
Celebs/49_Johnny_Depp_0013.jpg,non_target,1,0,1,0,0,6,6,103,,,,,,,,,,,,,274.1739367,274.1739367,274.6746313999997,,,,,,2,001,21,Male,2023-04-28_11h28.31.679,face_recognition_ERP_protocol,2022.2.5,59.960306277113006,
Celebs/50_Johnny_Depp_0018.jpg,non_target,1,0,1,0,0,7,7,109,,,,,,,,,,,,,275.17539110000007,275.17539110000007,275.6758230999999,,,,,,2,001,21,Male,2023-04-28_11h28.31.679,face_recognition_ERP_protocol,2022.2.5,59.960306277113006,
Celebs/16_Emma_Stone_0008.jpg,non_target,1,0,1,0,0,8,8,7,,,,,,,,,,,,,276.1762217999999,276.1762217999999,276.6768502,,,,,,2,001,21,Male,2023-04-28_11h28.31.679,face_recognition_ERP_protocol,2022.2.5,59.960306277113006,
Celebs/47_Johnny_Depp_0004.jpg,non_target,1,0,1,0,0,9,9,98,,,,,,,,,,,,,277.1774098000001,277.1774098000001,277.67790349999996,,,,,,2,001,21,Male,2023-04-28_11h28.31.679,face_recognition_ERP_protocol,2022.2.5,59.960306277113006,
Celebs/36_Jim_Parsons_0011.jpg,non_target,1,0,1,0,0,10,10,69,,,,,,,,,,,,,278.17994759999965,278.17994759999965,278.6790615,,,,,,2,001,21,Male,2023-04-28_11h28.31.679,face_recognition_ERP_protocol,2022.2.5,59.960306277113006,
Celebs/43_Will_Smith_0010.jpg,non_target,1,0,1,0,0,11,11,90,,,,,,,,,,,,,279.18029690000003,279.18029690000003,279.6801013999998,,,,,,2,001,21,Male,2023-04-28_11h28.31.679,face_recognition_ERP_protocol,2022.2.5,59.960306277113006,
Celebs/42_Will_Smith_0012.jpg,non_target,1,0,1,0,0,12,12,87,,,,,,,,,,,,,280.1806502999998,280.1806502999998,280.6814624999997,,,,,,2,001,21,Male,2023-04-28_11h28.31.679,face_recognition_ERP_protocol,2022.2.5,59.960306277113006,
Celebs/16_Emma_Stone_0012.jpg,non_target,1,0,1,0,0,13,13,9,,,,,,,,,,,,,281.1818450999999,281.1818450999999,281.6821609999997,,,,,,2,001,21,Male,2023-04-28_11h28.31.679,face_recognition_ERP_protocol,2022.2.5,59.960306277113006,
Celebs/18_Daniel_Radcliffe_0002.jpg,target,1,0,1,0,0,14,14,17,,,,,,,,,,,,,282.18341280000004,282.18341280000004,282.6834138999998,,,,,,2,001,21,Male,2023-04-28_11h28.31.679,face_recognition_ERP_protocol,2022.2.5,59.960306277113006,
Celebs/18_Emma_Stone_0016.jpg,non_target,1,0,1,0,0,15,15,20,,,,,,,,,,,,,283.1844040000001,283.1844040000001,283.6844427000001,,,,,,2,001,21,Male,2023-04-28_11h28.31.679,face_recognition_ERP_protocol,2022.2.5,59.960306277113006,
Celebs/45_Will_Smith_0010.jpg,non_target,1,0,1,0,0,16,16,95,,,,,,,,,,,,,284.1850036000001,284.1850036000001,284.68563330000006,,,,,,2,001,21,Male,2023-04-28_11h28.31.679,face_recognition_ERP_protocol,2022.2.5,59.960306277113006,
Celebs/50_Johnny_Depp_0008.jpg,non_target,1,0,1,0,0,17,17,107,,,,,,,,,,,,,285.18603489999987,285.18603489999987,285.68665169999986,,,,,,2,001,21,Male,2023-04-28_11h28.31.679,face_recognition_ERP_protocol,2022.2.5,59.960306277113006,
Celebs/51_Jackie_Chan_0006.jpg,non_target,1,0,1,0,0,18,18,110,,,,,,,,,,,,,286.18911039999966,286.18911039999966,286.68787589999965,,,,,,2,001,21,Male,2023-04-28_11h28.31.679,face_recognition_ERP_protocol,2022.2.5,59.960306277113006,
Celebs/16_Emma_Stone_0010.jpg,non_target,1,0,1,0,0,19,19,8,,,,,,,,,,,,,287.1727756999999,287.1727756999999,287.67227479999974,,,,,,2,001,21,Male,2023-04-28_11h28.31.679,face_recognition_ERP_protocol,2022.2.5,59.960306277113006,
Celebs/39_Jim_Parsons_0008.jpg,non_target,1,0,1,0,0,20,20,80,,,,,,,,,,,,,288.1731953999997,288.1731953999997,288.6732864999999,,,,,,2,001,21,Male,2023-04-28_11h28.31.679,face_recognition_ERP_protocol,2022.2.5,59.960306277113006,
Celebs/44_Will_Smith_0015.jpg,non_target,1,0,1,0,0,21,21,93,,,,,,,,,,,,,289.1738086999999,289.1738086999999,289.67434520000006,,,,,,2,001,21,Male,2023-04-28_11h28.31.679,face_recognition_ERP_protocol,2022.2.5,59.960306277113006,
Celebs/58_Jackie_Chan_0005.jpg,non_target,1,0,1,0,0,22,22,119,,,,,,,,,,,,,290.17566259999967,290.17566259999967,290.67551809999986,,,,,,2,001,21,Male,2023-04-28_11h28.31.679,face_recognition_ERP_protocol,2022.2.5,59.960306277113006,
Celebs/33_Jim_Parsons_0011.jpg,non_target,1,0,1,0,0,23,23,64,,,,,,,,,,,,,291.1760442,291.1760442,291.6766858000001,,,,,,2,001,21,Male,2023-04-28_11h28.31.679,face_recognition_ERP_protocol,2022.2.5,59.960306277113006,
Celebs/22_Emma_Watson_0003.jpg,non_target,1,0,1,0,0,24,24,41,,,,,,,,,,,,,292.17707999999993,292.17707999999993,292.67768309999974,,,,,,2,001,21,Male,2023-04-28_11h28.31.679,face_recognition_ERP_protocol,2022.2.5,59.960306277113006,
Celebs/18_Emma_Watson_0004.jpg,non_target,1,0,1,0,0,25,25,21,,,,,,,,,,,,,293.1948078999999,293.1948078999999,293.67854599999964,,,,,,2,001,21,Male,2023-04-28_11h28.31.679,face_recognition_ERP_protocol,2022.2.5,59.960306277113006,
Celebs/16_Margot_Robbie_0009.jpg,non_target,1,0,1,0,0,26,26,11,,,,,,,,,,,,,294.1957674,294.1957674,294.6797581999999,,,,,,2,001,21,Male,2023-04-28_11h28.31.679,face_recognition_ERP_protocol,2022.2.5,59.960306277113006,
Celebs/50_Jackie_Chan_0014.jpg,non_target,1,0,1,0,0,27,27,105,,,,,,,,,,,,,295.1968784999999,295.1968784999999,295.6808481999997,,,,,,2,001,21,Male,2023-04-28_11h28.31.679,face_recognition_ERP_protocol,2022.2.5,59.960306277113006,
Celebs/27_Scarlett_Johansson_0012.jpg,non_target,1,0,1,0,0,28,28,56,,,,,,,,,,,,,296.1978839999997,296.1978839999997,296.6818761999998,,,,,,2,001,21,Male,2023-04-28_11h28.31.679,face_recognition_ERP_protocol,2022.2.5,59.960306277113006,
Celebs/50_Johnny_Depp_0004.jpg,non_target,1,0,1,0,0,29,29,106,,,,,,,,,,,,,297.19923059999974,297.19923059999974,297.68301359999987,,,,,,2,001,21,Male,2023-04-28_11h28.31.679,face_recognition_ERP_protocol,2022.2.5,59.960306277113006,
Celebs/43_Will_Smith_0006.jpg,non_target,1,0,1,0,0,30,30,88,,,,,,,,,,,,,298.2002386999998,298.2002386999998,298.68411019999985,,,,,,2,001,21,Male,2023-04-28_11h28.31.679,face_recognition_ERP_protocol,2022.2.5,59.960306277113006,
Celebs/21_Margot_Robbie_0003.jpg,non_target,1,0,1,0,0,31,31,37,,,,,,,,,,,,,299.2012632000001,299.2012632000001,299.68522729999995,,,,,,2,001,21,Male,2023-04-28_11h28.31.679,face_recognition_ERP_protocol,2022.2.5,59.960306277113006,
Celebs/14_Emma_Watson_0015.jpg,non_target,1,0,1,0,0,32,32,4,,,,,,,,,,,,,300.2023365,300.2023365,300.6863820999997,,,,,,2,001,21,Male,2023-04-28_11h28.31.679,face_recognition_ERP_protocol,2022.2.5,59.960306277113006,
Celebs/48_Johnny_Depp_0003.jpg,non_target,1,0,1,0,0,33,33,101,,,,,,,,,,,,,301.20346549999977,301.20346549999977,301.68733239999983,,,,,,2,001,21,Male,2023-04-28_11h28.31.679,face_recognition_ERP_protocol,2022.2.5,59.960306277113006,
Celebs/22_Margot_Robbie_0010.jpg,non_target,1,0,1,0,0,34,34,43,,,,,,,,,,,,,302.20460449999973,302.20460449999973,302.6718357,,,,,,2,001,21,Male,2023-04-28_11h28.31.679,face_recognition_ERP_protocol,2022.2.5,59.960306277113006,
Celebs/21_Daniel_Radcliffe_0012.jpg,target,1,0,1,0,0,35,35,33,,,,,,,,,,,,,303.1889059,303.1889059,303.67293900000004,,,,,,2,001,21,Male,2023-04-28_11h28.31.679,face_recognition_ERP_protocol,2022.2.5,59.960306277113006,
Celebs/39_Jim_Parsons_0010.jpg,non_target,1,0,1,0,0,36,36,81,,,,,,,,,,,,,304.1905462999998,304.1905462999998,304.67401500000005,,,,,,2,001,21,Male,2023-04-28_11h28.31.679,face_recognition_ERP_protocol,2022.2.5,59.960306277113006,
Celebs/57_Jackie_Chan_0008.jpg,non_target,1,0,1,0,0,37,37,117,,,,,,,,,,,,,305.19120759999987,305.19120759999987,305.6750849,,,,,,2,001,21,Male,2023-04-28_11h28.31.679,face_recognition_ERP_protocol,2022.2.5,59.960306277113006,
Celebs/21_Emma_Stone_0002.jpg,non_target,1,0,1,0,0,38,38,34,,,,,,,,,,,,,306.19236729999966,306.19236729999966,306.6762991999999,,,,,,2,001,21,Male,2023-04-28_11h28.31.679,face_recognition_ERP_protocol,2022.2.5,59.960306277113006,
Celebs/20_Emma_Stone_0005.jpg,non_target,1,0,1,0,0,39,39,25,,,,,,,,,,,,,307.19360659999984,307.19360659999984,307.67740809999987,,,,,,2,001,21,Male,2023-04-28_11h28.31.679,face_recognition_ERP_protocol,2022.2.5,59.960306277113006,
Celebs/35_Neil_Patrick_Harris_0009.jpg,non_target,1,0,1,0,0,40,40,68,,,,,,,,,,,,,308.1945262999998,308.1945262999998,308.6783657000001,,,,,,2,001,21,Male,2023-04-28_11h28.31.679,face_recognition_ERP_protocol,2022.2.5,59.960306277113006,
Celebs/26_Scarlett_Johansson_0008.jpg,non_target,1,0,1,0,0,41,41,55,,,,,,,,,,,,,309.195561,309.195561,309.6794722999998,,,,,,2,001,21,Male,2023-04-28_11h28.31.679,face_recognition_ERP_protocol,2022.2.5,59.960306277113006,
Celebs/37_Will_Smith_0015.jpg,non_target,1,0,1,0,0,42,42,74,,,,,,,,,,,,,310.19951349999974,310.19951349999974,310.6807885999997,,,,,,2,001,21,Male,2023-04-28_11h28.31.679,face_recognition_ERP_protocol,2022.2.5,59.960306277113006,
Celebs/39_Jim_Parsons_0001.jpg,non_target,1,0,1,0,0,43,43,78,,,,,,,,,,,,,311.1977207,311.1977207,311.68168590000005,,,,,,2,001,21,Male,2023-04-28_11h28.31.679,face_recognition_ERP_protocol,2022.2.5,59.960306277113006,
Celebs/23_Daniel_Radcliffe_0002.jpg,target,1,0,1,0,0,44,44,45,,,,,,,,,,,,,312.198793,312.198793,312.68268569999964,,,,,,2,001,21,Male,2023-04-28_11h28.31.679,face_recognition_ERP_protocol,2022.2.5,59.960306277113006,
Celebs/22_Emma_Stone_0013.jpg,non_target,1,0,1,0,0,45,45,39,,,,,,,,,,,,,313.1999286999999,313.1999286999999,313.6838469999998,,,,,,2,001,21,Male,2023-04-28_11h28.31.679,face_recognition_ERP_protocol,2022.2.5,59.960306277113006,
Celebs/22_Emma_Watson_0001.jpg,non_target,1,0,1,0,0,46,46,40,,,,,,,,,,,,,314.2010688999999,314.2010688999999,314.6849619999998,,,,,,2,001,21,Male,2023-04-28_11h28.31.679,face_recognition_ERP_protocol,2022.2.5,59.960306277113006,
Celebs/14_Emma_Watson_0004.jpg,non_target,1,0,1,0,0,47,47,0,,,,,,,,,,,,,315.20201339999994,315.20201339999994,315.68601420000005,,,,,,2,001,21,Male,2023-04-28_11h28.31.679,face_recognition_ERP_protocol,2022.2.5,59.960306277113006,
Celebs/48_Johnny_Depp_0001.jpg,non_target,1,0,1,0,0,48,48,100,,,,,,,,,,,,,316.2031472999997,316.2031472999997,316.68731899999966,,,,,,2,001,21,Male,2023-04-28_11h28.31.679,face_recognition_ERP_protocol,2022.2.5,59.960306277113006,
Celebs/23_Emma_Stone_0014.jpg,non_target,1,0,1,0,0,49,49,48,,,,,,,,,,,,,317.20439480000005,317.20439480000005,317.67153259999986,,,,,,2,001,21,Male,2023-04-28_11h28.31.679,face_recognition_ERP_protocol,2022.2.5,59.960306277113006,
Celebs/39_Neil_Patrick_Harris_0001.jpg,non_target,1,0,1,0,0,50,50,82,,,,,,,,,,,,,318.18844199999967,318.18844199999967,318.67266299999983,,,,,,2,001,21,Male,2023-04-28_11h28.31.679,face_recognition_ERP_protocol,2022.2.5,59.960306277113006,
Celebs/28_Scarlett_Johansson_0005.jpg,non_target,1,0,1,0,0,51,51,57,,,,,,,,,,,,,319.18967129999965,319.18967129999965,319.67375189999984,,,,,,2,001,21,Male,2023-04-28_11h28.31.679,face_recognition_ERP_protocol,2022.2.5,59.960306277113006,
Celebs/14_Emma_Watson_0005.jpg,non_target,1,0,1,0,0,52,52,1,,,,,,,,,,,,,320.1908377999998,320.1908377999998,320.6747842999998,,,,,,2,001,21,Male,2023-04-28_11h28.31.679,face_recognition_ERP_protocol,2022.2.5,59.960306277113006,
Celebs/54_Jackie_Chan_0001.jpg,non_target,1,0,1,0,0,53,53,112,,,,,,,,,,,,,321.1920719,321.1920719,321.67590440000004,,,,,,2,001,21,Male,2023-04-28_11h28.31.679,face_recognition_ERP_protocol,2022.2.5,59.960306277113006,
Celebs/17_Daniel_Radcliffe_0007.jpg,target,1,0,1,0,0,54,54,12,,,,,,,,,,,,,322.1930594999999,322.1930594999999,322.6769956999997,,,,,,2,001,21,Male,2023-04-28_11h28.31.679,face_recognition_ERP_protocol,2022.2.5,59.960306277113006,
Celebs/47_Johnny_Depp_0003.jpg,non_target,1,0,1,0,0,55,55,97,,,,,,,,,,,,,323.1941426999997,323.1941426999997,323.6781880999997,,,,,,2,001,21,Male,2023-04-28_11h28.31.679,face_recognition_ERP_protocol,2022.2.5,59.960306277113006,
Celebs/40_Jim_Parsons_0015.jpg,non_target,1,0,1,0,0,56,56,85,,,,,,,,,,,,,324.1952633000001,324.1952633000001,324.67912309999974,,,,,,2,001,21,Male,2023-04-28_11h28.31.679,face_recognition_ERP_protocol,2022.2.5,59.960306277113006,
Celebs/21_Emma_Watson_0004.jpg,non_target,1,0,1,0,0,57,57,36,,,,,,,,,,,,,325.1965944999997,325.1965944999997,325.6802527,,,,,,2,001,21,Male,2023-04-28_11h28.31.679,face_recognition_ERP_protocol,2022.2.5,59.960306277113006,
Celebs/24_Scarlett_Johansson_0011.jpg,non_target,1,0,1,0,0,58,58,52,,,,,,,,,,,,,326.19744790000004,326.19744790000004,326.68149159999984,,,,,,2,001,21,Male,2023-04-28_11h28.31.679,face_recognition_ERP_protocol,2022.2.5,59.960306277113006,
Celebs/20_Scarlett_Johansson_0011.jpg,non_target,1,0,1,0,0,59,59,29,,,,,,,,,,,,,327.1984987999999,327.1984987999999,327.6825137999999,,,,,,2,001,21,Male,2023-04-28_11h28.31.679,face_recognition_ERP_protocol,2022.2.5,59.960306277113006,
Celebs/32_Jim_Parsons_0018.jpg,non_target,1,0,1,0,0,60,60,63,,,,,,,,,,,,,328.19976859999997,328.19976859999997,328.68356760000006,,,,,,2,001,21,Male,2023-04-28_11h28.31.679,face_recognition_ERP_protocol,2022.2.5,59.960306277113006,
Celebs/38_Neil_Patrick_Harris_0006.jpg,non_target,1,0,1,0,0,61,61,76,,,,,,,,,,,,,329.2005715999999,329.2005715999999,329.6847637999999,,,,,,2,001,21,Male,2023-04-28_11h28.31.679,face_recognition_ERP_protocol,2022.2.5,59.960306277113006,
Celebs/21_Scarlett_Johansson_0007.jpg,non_target,1,0,1,0,0,62,62,38,,,,,,,,,,,,,330.2020057,330.2020057,330.6856869999997,,,,,,2,001,21,Male,2023-04-28_11h28.31.679,face_recognition_ERP_protocol,2022.2.5,59.960306277113006,
Celebs/50_Johnny_Depp_0010.jpg,non_target,1,0,1,0,0,63,63,108,,,,,,,,,,,,,331.2029038999999,331.2029038999999,331.6869025000001,,,,,,2,001,21,Male,2023-04-28_11h28.31.679,face_recognition_ERP_protocol,2022.2.5,59.960306277113006,
Celebs/39_Jim_Parsons_0004.jpg,non_target,1,0,1,0,0,64,64,79,,,,,,,,,,,,,332.20417129999987,332.20417129999987,332.68793430000005,,,,,,2,001,21,Male,2023-04-28_11h28.31.679,face_recognition_ERP_protocol,2022.2.5,59.960306277113006,
Celebs/45_Johnny_Depp_0003.jpg,non_target,1,0,1,0,0,65,65,94,,,,,,,,,,,,,333.18841129999964,333.18841129999964,333.6723695999999,,,,,,2,001,21,Male,2023-04-28_11h28.31.679,face_recognition_ERP_protocol,2022.2.5,59.960306277113006,
Celebs/44_Will_Smith_0007.jpg,non_target,1,0,1,0,0,66,66,92,,,,,,,,,,,,,334.17402549999997,334.17402549999997,334.67350050000005,,,,,,2,001,21,Male,2023-04-28_11h28.31.679,face_recognition_ERP_protocol,2022.2.5,59.960306277113006,
Celebs/52_Jackie_Chan_0002.jpg,non_target,1,0,1,0,0,67,67,111,,,,,,,,,,,,,335.1905434999999,335.1905434999999,335.6744137999999,,,,,,2,001,21,Male,2023-04-28_11h28.31.679,face_recognition_ERP_protocol,2022.2.5,59.960306277113006,
Celebs/33_Neil_Patrick_Harris_0011.jpg,non_target,1,0,1,0,0,68,68,65,,,,,,,,,,,,,336.19176119999975,336.19176119999975,336.67559089999986,,,,,,2,001,21,Male,2023-04-28_11h28.31.679,face_recognition_ERP_protocol,2022.2.5,59.960306277113006,
Celebs/14_Emma_Watson_0008.jpg,non_target,1,0,1,0,0,69,69,2,,,,,,,,,,,,,337.1928872999997,337.1928872999997,337.676731,,,,,,2,001,21,Male,2023-04-28_11h28.31.679,face_recognition_ERP_protocol,2022.2.5,59.960306277113006,
Celebs/22_Scarlett_Johansson_0005.jpg,non_target,1,0,1,0,0,70,70,44,,,,,,,,,,,,,338.1938176999997,338.1938176999997,338.6778731999998,,,,,,2,001,21,Male,2023-04-28_11h28.31.679,face_recognition_ERP_protocol,2022.2.5,59.960306277113006,
Celebs/45_Will_Smith_0014.jpg,non_target,1,0,1,0,0,71,71,96,,,,,,,,,,,,,339.1988431999998,339.1988431999998,339.67927039999995,,,,,,2,001,21,Male,2023-04-28_11h28.31.679,face_recognition_ERP_protocol,2022.2.5,59.960306277113006,
Celebs/25_Scarlett_Johansson_0010.jpg,non_target,1,0,1,0,0,72,72,53,,,,,,,,,,,,,340.19762539999965,340.19762539999965,340.68034179999995,,,,,,2,001,21,Male,2023-04-28_11h28.31.679,face_recognition_ERP_protocol,2022.2.5,59.960306277113006,
Celebs/29_Scarlett_Johansson_0016.jpg,non_target,1,0,1,0,0,73,73,59,,,,,,,,,,,,,341.1973039999998,341.1973039999998,341.6815220999997,,,,,,2,001,21,Male,2023-04-28_11h28.31.679,face_recognition_ERP_protocol,2022.2.5,59.960306277113006,
Celebs/38_Will_Smith_0013.jpg,non_target,1,0,1,0,0,74,74,77,,,,,,,,,,,,,342.1983891,342.1983891,342.6822975,,,,,,2,001,21,Male,2023-04-28_11h28.31.679,face_recognition_ERP_protocol,2022.2.5,59.960306277113006,
Celebs/15_Margot_Robbie_0005.jpg,non_target,1,0,1,0,0,75,75,5,,,,,,,,,,,,,343.1995274000001,343.1995274000001,343.68322639999997,,,,,,2,001,21,Male,2023-04-28_11h28.31.679,face_recognition_ERP_protocol,2022.2.5,59.960306277113006,
Celebs/18_Daniel_Radcliffe_0007.jpg,target,1,0,1,0,0,76,76,18,,,,,,,,,,,,,344.20047239999985,344.20047239999985,344.68431859999964,,,,,,2,001,21,Male,2023-04-28_11h28.31.679,face_recognition_ERP_protocol,2022.2.5,59.960306277113006,
Celebs/50_Jackie_Chan_0012.jpg,non_target,1,0,1,0,0,77,77,104,,,,,,,,,,,,,345.20156210000005,345.20156210000005,345.6854186999999,,,,,,2,001,21,Male,2023-04-28_11h28.31.679,face_recognition_ERP_protocol,2022.2.5,59.960306277113006,
Celebs/57_Jackie_Chan_0010.jpg,non_target,1,0,1,0,0,78,78,118,,,,,,,,,,,,,346.2026963999997,346.2026963999997,346.68659260000004,,,,,,2,001,21,Male,2023-04-28_11h28.31.679,face_recognition_ERP_protocol,2022.2.5,59.960306277113006,
Celebs/31_Neil_Patrick_Harris_0008.jpg,non_target,1,0,1,0,0,79,79,60,,,,,,,,,,,,,347.203755,347.203755,347.68765699999994,,,,,,2,001,21,Male,2023-04-28_11h28.31.679,face_recognition_ERP_protocol,2022.2.5,59.960306277113006,
Celebs/32_Jim_Parsons_0016.jpg,non_target,1,0,1,0,0,80,80,62,,,,,,,,,,,,,348.18826869999975,348.18826869999975,348.67208230000006,,,,,,2,001,21,Male,2023-04-28_11h28.31.679,face_recognition_ERP_protocol,2022.2.5,59.960306277113006,
Celebs/48_Johnny_Depp_0005.jpg,non_target,1,0,1,0,0,81,81,102,,,,,,,,,,,,,349.18922539999994,349.18922539999994,349.67316809999966,,,,,,2,001,21,Male,2023-04-28_11h28.31.679,face_recognition_ERP_protocol,2022.2.5,59.960306277113006,
Celebs/14_Emma_Watson_0013.jpg,non_target,1,0,1,0,0,82,82,3,,,,,,,,,,,,,350.1904261999998,350.1904261999998,350.6743538999999,,,,,,2,001,21,Male,2023-04-28_11h28.31.679,face_recognition_ERP_protocol,2022.2.5,59.960306277113006,
Celebs/22_Emma_Watson_0010.jpg,non_target,1,0,1,0,0,83,83,42,,,,,,,,,,,,,351.19157389999964,351.19157389999964,351.675608,,,,,,2,001,21,Male,2023-04-28_11h28.31.679,face_recognition_ERP_protocol,2022.2.5,59.960306277113006,
Celebs/23_Daniel_Radcliffe_0019.jpg,target,1,0,1,0,0,84,84,47,,,,,,,,,,,,,352.1927381999999,352.1927381999999,352.6763741,,,,,,2,001,21,Male,2023-04-28_11h28.31.679,face_recognition_ERP_protocol,2022.2.5,59.960306277113006,
Celebs/55_Jackie_Chan_0008.jpg,non_target,1,0,1,0,0,85,85,115,,,,,,,,,,,,,353.1768204,353.1768204,353.67750780000006,,,,,,2,001,21,Male,2023-04-28_11h28.31.679,face_recognition_ERP_protocol,2022.2.5,59.960306277113006,
Celebs/26_Scarlett_Johansson_0003.jpg,non_target,1,0,1,0,0,86,86,54,,,,,,,,,,,,,354.1948116999997,354.1948116999997,354.67864819999977,,,,,,2,001,21,Male,2023-04-28_11h28.31.679,face_recognition_ERP_protocol,2022.2.5,59.960306277113006,
Celebs/17_Margot_Robbie_0012.jpg,non_target,1,0,1,0,0,87,87,15,,,,,,,,,,,,,355.1958510999998,355.1958510999998,355.67974000000004,,,,,,2,001,21,Male,2023-04-28_11h28.31.679,face_recognition_ERP_protocol,2022.2.5,59.960306277113006,
Celebs/23_Daniel_Radcliffe_0010.jpg,target,1,0,1,0,0,88,88,46,,,,,,,,,,,,,356.1969350999998,356.1969350999998,356.68089759999975,,,,,,2,001,21,Male,2023-04-28_11h28.31.679,face_recognition_ERP_protocol,2022.2.5,59.960306277113006,
Celebs/39_Neil_Patrick_Harris_0010.jpg,non_target,1,0,1,0,0,89,89,83,,,,,,,,,,,,,357.19806119999976,357.19806119999976,357.68189779999966,,,,,,2,001,21,Male,2023-04-28_11h28.31.679,face_recognition_ERP_protocol,2022.2.5,59.960306277113006,
Celebs/24_Scarlett_Johansson_0001.jpg,non_target,1,0,1,0,0,90,90,51,,,,,,,,,,,,,358.1990627,358.1990627,358.6828986999999,,,,,,2,001,21,Male,2023-04-28_11h28.31.679,face_recognition_ERP_protocol,2022.2.5,59.960306277113006,
Celebs/18_Daniel_Radcliffe_0008.jpg,target,1,0,1,0,0,91,91,19,,,,,,,,,,,,,359.20128339999974,359.20128339999974,359.68417739999995,,,,,,2,001,21,Male,2023-04-28_11h28.31.679,face_recognition_ERP_protocol,2022.2.5,59.960306277113006,
Celebs/21_Daniel_Radcliffe_0008.jpg,target,1,0,1,0,0,92,92,31,,,,,,,,,,,,,360.1845051,360.1845051,360.68521340000007,,,,,,2,001,21,Male,2023-04-28_11h28.31.679,face_recognition_ERP_protocol,2022.2.5,59.960306277113006,
Celebs/19_Emma_Stone_0006.jpg,non_target,1,0,1,0,0,93,93,22,,,,,,,,,,,,,361.2191911,361.2191911,361.68611459999966,,,,,,2,001,21,Male,2023-04-28_11h28.31.679,face_recognition_ERP_protocol,2022.2.5,59.960306277113006,
Celebs/19_Margot_Robbie_0004.jpg,non_target,1,0,1,0,0,94,94,24,,,,,,,,,,,,,362.2035286999999,362.2035286999999,362.68752989999984,,,,,,2,001,21,Male,2023-04-28_11h28.31.679,face_recognition_ERP_protocol,2022.2.5,59.960306277113006,
Celebs/47_Johnny_Depp_0009.jpg,non_target,1,0,1,0,0,95,95,99,,,,,,,,,,,,,363.20461049999994,363.20461049999994,363.6719143999999,,,,,,2,001,21,Male,2023-04-28_11h28.31.679,face_recognition_ERP_protocol,2022.2.5,59.960306277113006,
Celebs/19_Margot_Robbie_0001.jpg,non_target,1,0,1,0,0,96,96,23,,,,,,,,,,,,,364.1889692999998,364.1889692999998,364.6728785999999,,,,,,2,001,21,Male,2023-04-28_11h28.31.679,face_recognition_ERP_protocol,2022.2.5,59.960306277113006,
Celebs/43_Will_Smith_0007.jpg,non_target,1,0,1,0,0,97,97,89,,,,,,,,,,,,,365.19008129999975,365.19008129999975,365.67391,,,,,,2,001,21,Male,2023-04-28_11h28.31.679,face_recognition_ERP_protocol,2022.2.5,59.960306277113006,
Celebs/37_Neil_Patrick_Harris_0010.jpg,non_target,1,0,1,0,0,98,98,72,,,,,,,,,,,,,366.19138959999964,366.19138959999964,366.6751799999997,,,,,,2,001,21,Male,2023-04-28_11h28.31.679,face_recognition_ERP_protocol,2022.2.5,59.960306277113006,
Celebs/34_Neil_Patrick_Harris_0007.jpg,non_target,1,0,1,0,0,99,99,67,,,,,,,,,,,,,367.1923176,367.1923176,367.6762418999997,,,,,,2,001,21,Male,2023-04-28_11h28.31.679,face_recognition_ERP_protocol,2022.2.5,59.960306277113006,
Celebs/55_Jackie_Chan_0003.jpg,non_target,1,0,1,0,0,100,100,114,,,,,,,,,,,,,368.19329789999983,368.19329789999983,368.67717700000003,,,,,,2,001,21,Male,2023-04-28_11h28.31.679,face_recognition_ERP_protocol,2022.2.5,59.960306277113006,
Celebs/36_Neil_Patrick_Harris_0007.jpg,non_target,1,0,1,0,0,101,101,70,,,,,,,,,,,,,369.1944476999997,369.1944476999997,369.67836450000004,,,,,,2,001,21,Male,2023-04-28_11h28.31.679,face_recognition_ERP_protocol,2022.2.5,59.960306277113006,
Celebs/17_Emma_Watson_0006.jpg,non_target,1,0,1,0,0,102,102,13,,,,,,,,,,,,,370.1956264999999,370.1956264999999,370.6794325999999,,,,,,2,001,21,Male,2023-04-28_11h28.31.679,face_recognition_ERP_protocol,2022.2.5,59.960306277113006,
Celebs/17_Margot_Robbie_0014.jpg,non_target,1,0,1,0,0,103,103,16,,,,,,,,,,,,,371.1966699999998,371.1966699999998,371.6806118999998,,,,,,2,001,21,Male,2023-04-28_11h28.31.679,face_recognition_ERP_protocol,2022.2.5,59.960306277113006,
Celebs/21_Emma_Stone_0003.jpg,non_target,1,0,1,0,0,104,104,35,,,,,,,,,,,,,372.1977173999999,372.1977173999999,372.6816074999997,,,,,,2,001,21,Male,2023-04-28_11h28.31.679,face_recognition_ERP_protocol,2022.2.5,59.960306277113006,
Celebs/40_Jim_Parsons_0004.jpg,non_target,1,0,1,0,0,105,105,84,,,,,,,,,,,,,373.1987879999997,373.1987879999997,373.6827619999999,,,,,,2,001,21,Male,2023-04-28_11h28.31.679,face_recognition_ERP_protocol,2022.2.5,59.960306277113006,
Celebs/17_Margot_Robbie_0006.jpg,non_target,1,0,1,0,0,106,106,14,,,,,,,,,,,,,374.2003734,374.2003734,374.68378219999977,,,,,,2,001,21,Male,2023-04-28_11h28.31.679,face_recognition_ERP_protocol,2022.2.5,59.960306277113006,
Celebs/32_Jim_Parsons_0010.jpg,non_target,1,0,1,0,0,107,107,61,,,,,,,,,,,,,375.2009803000001,375.2009803000001,375.6847865999998,,,,,,2,001,21,Male,2023-04-28_11h28.31.679,face_recognition_ERP_protocol,2022.2.5,59.960306277113006,
Celebs/24_Daniel_Radcliffe_0017.jpg,target,1,0,1,0,0,108,108,49,,,,,,,,,,,,,376.18797369999993,376.18797369999993,376.68621630000007,,,,,,2,001,21,Male,2023-04-28_11h28.31.679,face_recognition_ERP_protocol,2022.2.5,59.960306277113006,
Celebs/21_Daniel_Radcliffe_0009.jpg,target,1,0,1,0,0,109,109,32,,,,,,,,,,,,,377.20321269999977,377.20321269999977,377.68699990000005,,,,,,2,001,21,Male,2023-04-28_11h28.31.679,face_recognition_ERP_protocol,2022.2.5,59.960306277113006,
Celebs/29_Scarlett_Johansson_0010.jpg,non_target,1,0,1,0,0,110,110,58,,,,,,,,,,,,,378.2044542999997,378.2044542999997,378.6883207000001,,,,,,2,001,21,Male,2023-04-28_11h28.31.679,face_recognition_ERP_protocol,2022.2.5,59.960306277113006,
Celebs/20_Margot_Robbie_0004.jpg,non_target,1,0,1,0,0,111,111,27,,,,,,,,,,,,,379.18844480000007,379.18844480000007,379.6724885999997,,,,,,2,001,21,Male,2023-04-28_11h28.31.679,face_recognition_ERP_protocol,2022.2.5,59.960306277113006,
Celebs/40_Will_Smith_0012.jpg,non_target,1,0,1,0,0,112,112,86,,,,,,,,,,,,,380.1743501000001,380.1743501000001,380.673722,,,,,,2,001,21,Male,2023-04-28_11h28.31.679,face_recognition_ERP_protocol,2022.2.5,59.960306277113006,
Celebs/34_Neil_Patrick_Harris_0004.jpg,non_target,1,0,1,0,0,113,113,66,,,,,,,,,,,,,381.1909950999998,381.1909950999998,381.67485309999984,,,,,,2,001,21,Male,2023-04-28_11h28.31.679,face_recognition_ERP_protocol,2022.2.5,59.960306277113006,
Celebs/15_Margot_Robbie_0012.jpg,non_target,1,0,1,0,0,114,114,6,,,,,,,,,,,,,382.17513119999967,382.17513119999967,382.67600589999984,,,,,,2,001,21,Male,2023-04-28_11h28.31.679,face_recognition_ERP_protocol,2022.2.5,59.960306277113006,
Celebs/44_Will_Smith_0006.jpg,non_target,1,0,1,0,0,115,115,91,,,,,,,,,,,,,383.19313399999965,383.19313399999965,383.6769559999998,,,,,,2,001,21,Male,2023-04-28_11h28.31.679,face_recognition_ERP_protocol,2022.2.5,59.960306277113006,
Celebs/37_Neil_Patrick_Harris_0014.jpg,non_target,1,0,1,0,0,116,116,73,,,,,,,,,,,,,384.1942025999997,384.1942025999997,384.6780835999998,,,,,,2,001,21,Male,2023-04-28_11h28.31.679,face_recognition_ERP_protocol,2022.2.5,59.960306277113006,
Celebs/24_Emma_Stone_0015.jpg,non_target,1,0,1,0,0,117,117,50,,,,,,,,,,,,,385.1951122999999,385.1951122999999,385.67913599999974,,,,,,2,001,21,Male,2023-04-28_11h28.31.679,face_recognition_ERP_protocol,2022.2.5,59.960306277113006,
Celebs/55_Jackie_Chan_0015.jpg,non_target,1,0,1,0,0,118,118,116,,,,,,,,,,,,,386.1963114,386.1963114,386.68044999999984,,,,,,2,001,21,Male,2023-04-28_11h28.31.679,face_recognition_ERP_protocol,2022.2.5,59.960306277113006,
Celebs/20_Emma_Watson_0007.jpg,non_target,1,0,1,0,0,119,119,26,,,,,,,,,,,,,387.1974424,387.1974424,387.68131989999983,,,,,,2,001,21,Male,2023-04-28_11h28.31.679,face_recognition_ERP_protocol,2022.2.5,59.960306277113006,
Celebs/14_Emma_Watson_0008.jpg,non_target,2,0,2,0,0,0,0,2,,,,,,,,,,,,,393.00594779999983,393.00594779999983,393.4546713999998,388.1818705999999,388.1818705999999,space,4.730614699999933,,2,001,21,Male,2023-04-28_11h28.31.679,face_recognition_ERP_protocol,2022.2.5,59.960306277113006,
Celebs/33_Neil_Patrick_Harris_0011.jpg,non_target,2,0,2,0,0,1,1,65,,,,,,,,,,,,,393.9549333,393.9549333,394.4556173000001,,,,,,2,001,21,Male,2023-04-28_11h28.31.679,face_recognition_ERP_protocol,2022.2.5,59.960306277113006,
Celebs/26_Scarlett_Johansson_0008.jpg,non_target,2,0,2,0,0,2,2,55,,,,,,,,,,,,,394.94141360000003,394.94141360000003,395.43998740000006,,,,,,2,001,21,Male,2023-04-28_11h28.31.679,face_recognition_ERP_protocol,2022.2.5,59.960306277113006,
Celebs/14_Emma_Watson_0013.jpg,non_target,2,0,2,0,0,3,3,3,,,,,,,,,,,,,395.9404529999997,395.9404529999997,396.4411150000001,,,,,,2,001,21,Male,2023-04-28_11h28.31.679,face_recognition_ERP_protocol,2022.2.5,59.960306277113006,
Celebs/19_Margot_Robbie_0001.jpg,non_target,2,0,2,0,0,4,4,23,,,,,,,,,,,,,396.9417533999999,396.9417533999999,397.4422519,,,,,,2,001,21,Male,2023-04-28_11h28.31.679,face_recognition_ERP_protocol,2022.2.5,59.960306277113006,
Celebs/50_Johnny_Depp_0010.jpg,non_target,2,0,2,0,0,5,5,108,,,,,,,,,,,,,397.9426405999998,397.9426405999998,398.4433064,,,,,,2,001,21,Male,2023-04-28_11h28.31.679,face_recognition_ERP_protocol,2022.2.5,59.960306277113006,
Celebs/36_Jim_Parsons_0011.jpg,non_target,2,0,2,0,0,6,6,69,,,,,,,,,,,,,398.9437146,398.9437146,399.44443809999984,,,,,,2,001,21,Male,2023-04-28_11h28.31.679,face_recognition_ERP_protocol,2022.2.5,59.960306277113006,
Celebs/39_Jim_Parsons_0004.jpg,non_target,2,0,2,0,0,7,7,79,,,,,,,,,,,,,399.9449080999998,399.9449080999998,400.4454636999999,,,,,,2,001,21,Male,2023-04-28_11h28.31.679,face_recognition_ERP_protocol,2022.2.5,59.960306277113006,
Celebs/34_Neil_Patrick_Harris_0004.jpg,non_target,2,0,2,0,0,8,8,66,,,,,,,,,,,,,400.9458823,400.9458823,401.4465918000001,,,,,,2,001,21,Male,2023-04-28_11h28.31.679,face_recognition_ERP_protocol,2022.2.5,59.960306277113006,
Celebs/20_Margot_Robbie_0004.jpg,non_target,2,0,2,0,0,9,9,27,,,,,,,,,,,,,401.94798349999974,401.94798349999974,402.4476807000001,,,,,,2,001,21,Male,2023-04-28_11h28.31.679,face_recognition_ERP_protocol,2022.2.5,59.960306277113006,
Celebs/16_Emma_Stone_0012.jpg,non_target,2,0,2,0,0,10,10,9,,,,,,,,,,,,,402.9648110999997,402.9648110999997,403.44862349999994,,,,,,2,001,21,Male,2023-04-28_11h28.31.679,face_recognition_ERP_protocol,2022.2.5,59.960306277113006,
Celebs/23_Daniel_Radcliffe_0019.jpg,target,2,0,2,0,0,11,11,47,,,,,,,,,,,,,403.9658866999998,403.9658866999998,404.4497742999997,,,,,,2,001,21,Male,2023-04-28_11h28.31.679,face_recognition_ERP_protocol,2022.2.5,59.960306277113006,
Celebs/17_Margot_Robbie_0014.jpg,non_target,2,0,2,0,0,12,12,16,,,,,,,,,,,,,404.95005919999994,404.95005919999994,405.4509395,,,,,,2,001,21,Male,2023-04-28_11h28.31.679,face_recognition_ERP_protocol,2022.2.5,59.960306277113006,
Celebs/44_Will_Smith_0007.jpg,non_target,2,0,2,0,0,13,13,92,,,,,,,,,,,,,405.96795810000003,405.96795810000003,406.4518622999999,,,,,,2,001,21,Male,2023-04-28_11h28.31.679,face_recognition_ERP_protocol,2022.2.5,59.960306277113006,
Celebs/22_Emma_Watson_0003.jpg,non_target,2,0,2,0,0,14,14,41,,,,,,,,,,,,,406.9690271999998,406.9690271999998,407.4530184,,,,,,2,001,21,Male,2023-04-28_11h28.31.679,face_recognition_ERP_protocol,2022.2.5,59.960306277113006,
Celebs/24_Scarlett_Johansson_0001.jpg,non_target,2,0,2,0,0,15,15,51,,,,,,,,,,,,,407.9534273999998,407.9534273999998,408.45405249999976,,,,,,2,001,21,Male,2023-04-28_11h28.31.679,face_recognition_ERP_protocol,2022.2.5,59.960306277113006,
Celebs/39_Jim_Parsons_0001.jpg,non_target,2,0,2,0,0,16,16,78,,,,,,,,,,,,,408.9547739999998,408.9547739999998,409.45527509999965,,,,,,2,001,21,Male,2023-04-28_11h28.31.679,face_recognition_ERP_protocol,2022.2.5,59.960306277113006,
Celebs/21_Margot_Robbie_0003.jpg,non_target,2,0,2,0,0,17,17,37,,,,,,,,,,,,,409.9556233999997,409.9556233999997,410.43951319999996,,,,,,2,001,21,Male,2023-04-28_11h28.31.679,face_recognition_ERP_protocol,2022.2.5,59.960306277113006,
Celebs/17_Margot_Robbie_0006.jpg,non_target,2,0,2,0,0,18,18,14,,,,,,,,,,,,,410.940157,410.940157,411.44059739999966,,,,,,2,001,21,Male,2023-04-28_11h28.31.679,face_recognition_ERP_protocol,2022.2.5,59.960306277113006,
Celebs/50_Jackie_Chan_0012.jpg,non_target,2,0,2,0,0,19,19,104,,,,,,,,,,,,,411.94105360000003,411.94105360000003,412.4417820999997,,,,,,2,001,21,Male,2023-04-28_11h28.31.679,face_recognition_ERP_protocol,2022.2.5,59.960306277113006,
Celebs/29_Scarlett_Johansson_0010.jpg,non_target,2,0,2,0,0,20,20,58,,,,,,,,,,,,,412.95883129999993,412.95883129999993,413.4428711999999,,,,,,2,001,21,Male,2023-04-28_11h28.31.679,face_recognition_ERP_protocol,2022.2.5,59.960306277113006,
Celebs/43_Will_Smith_0010.jpg,non_target,2,0,2,0,0,21,21,90,,,,,,,,,,,,,413.9432751999998,413.9432751999998,414.44394239999974,,,,,,2,001,21,Male,2023-04-28_11h28.31.679,face_recognition_ERP_protocol,2022.2.5,59.960306277113006,
Celebs/24_Scarlett_Johansson_0011.jpg,non_target,2,0,2,0,0,22,22,52,,,,,,,,,,,,,414.94491130000006,414.94491130000006,415.4450198999998,,,,,,2,001,21,Male,2023-04-28_11h28.31.679,face_recognition_ERP_protocol,2022.2.5,59.960306277113006,
Celebs/40_Jim_Parsons_0004.jpg,non_target,2,0,2,0,0,23,23,84,,,,,,,,,,,,,415.9454074,415.9454074,416.4461613999997,,,,,,2,001,21,Male,2023-04-28_11h28.31.679,face_recognition_ERP_protocol,2022.2.5,59.960306277113006,
Celebs/25_Scarlett_Johansson_0010.jpg,non_target,2,0,2,0,0,24,24,53,,,,,,,,,,,,,416.94663330000003,416.94663330000003,417.44729430000007,,,,,,2,001,21,Male,2023-04-28_11h28.31.679,face_recognition_ERP_protocol,2022.2.5,59.960306277113006,
Celebs/50_Jackie_Chan_0014.jpg,non_target,2,0,2,0,0,25,25,105,,,,,,,,,,,,,417.9488388,417.9488388,418.4484401999998,,,,,,2,001,21,Male,2023-04-28_11h28.31.679,face_recognition_ERP_protocol,2022.2.5,59.960306277113006,
Celebs/14_Emma_Watson_0004.jpg,non_target,2,0,2,0,0,26,26,0,,,,,,,,,,,,,418.94954430000007,418.94954430000007,419.4494698999997,,,,,,2,001,21,Male,2023-04-28_11h28.31.679,face_recognition_ERP_protocol,2022.2.5,59.960306277113006,
Celebs/22_Emma_Stone_0013.jpg,non_target,2,0,2,0,0,27,27,39,,,,,,,,,,,,,419.96659109999973,419.96659109999973,420.4505128999999,,,,,,2,001,21,Male,2023-04-28_11h28.31.679,face_recognition_ERP_protocol,2022.2.5,59.960306277113006,
Celebs/37_Neil_Patrick_Harris_0010.jpg,non_target,2,0,2,0,0,28,28,72,,,,,,,,,,,,,420.9512264,420.9512264,421.4515975999998,,,,,,2,001,21,Male,2023-04-28_11h28.31.679,face_recognition_ERP_protocol,2022.2.5,59.960306277113006,
Celebs/23_Daniel_Radcliffe_0010.jpg,target,2,0,2,0,0,29,29,46,,,,,,,,,,,,,421.95195699999977,421.95195699999977,422.4526802999999,,,,,,2,001,21,Male,2023-04-28_11h28.31.679,face_recognition_ERP_protocol,2022.2.5,59.960306277113006,
Celebs/16_Emma_Stone_0008.jpg,non_target,2,0,2,0,0,30,30,7,,,,,,,,,,,,,422.9532142999997,422.9532142999997,423.4538947000001,,,,,,2,001,21,Male,2023-04-28_11h28.31.679,face_recognition_ERP_protocol,2022.2.5,59.960306277113006,
Celebs/37_Neil_Patrick_Harris_0014.jpg,non_target,2,0,2,0,0,31,31,73,,,,,,,,,,,,,423.95468660000006,423.95468660000006,424.4548646999997,,,,,,2,001,21,Male,2023-04-28_11h28.31.679,face_recognition_ERP_protocol,2022.2.5,59.960306277113006,
Celebs/34_Neil_Patrick_Harris_0007.jpg,non_target,2,0,2,0,0,32,32,67,,,,,,,,,,,,,424.9720729999999,424.9720729999999,425.43938849999995,,,,,,2,001,21,Male,2023-04-28_11h28.31.679,face_recognition_ERP_protocol,2022.2.5,59.960306277113006,
Celebs/43_Will_Smith_0007.jpg,non_target,2,0,2,0,0,33,33,89,,,,,,,,,,,,,425.94130369999993,425.94130369999993,426.4404013999997,,,,,,2,001,21,Male,2023-04-28_11h28.31.679,face_recognition_ERP_protocol,2022.2.5,59.960306277113006,
Celebs/17_Daniel_Radcliffe_0007.jpg,target,2,0,2,0,0,34,34,12,,,,,,,,,,,,,426.9413049,426.9413049,427.4414867999999,,,,,,2,001,21,Male,2023-04-28_11h28.31.679,face_recognition_ERP_protocol,2022.2.5,59.960306277113006,
Celebs/47_Johnny_Depp_0009.jpg,non_target,2,0,2,0,0,35,35,99,,,,,,,,,,,,,427.9447789999999,427.9447789999999,428.44275419999985,,,,,,2,001,21,Male,2023-04-28_11h28.31.679,face_recognition_ERP_protocol,2022.2.5,59.960306277113006,
Celebs/45_Will_Smith_0014.jpg,non_target,2,0,2,0,0,36,36,96,,,,,,,,,,,,,428.9598020999997,428.9598020999997,429.4436111,,,,,,2,001,21,Male,2023-04-28_11h28.31.679,face_recognition_ERP_protocol,2022.2.5,59.960306277113006,
Celebs/38_Neil_Patrick_Harris_0006.jpg,non_target,2,0,2,0,0,37,37,76,,,,,,,,,,,,,429.94450199999983,429.94450199999983,430.44483249999985,,,,,,2,001,21,Male,2023-04-28_11h28.31.679,face_recognition_ERP_protocol,2022.2.5,59.960306277113006,
Celebs/45_Will_Smith_0010.jpg,non_target,2,0,2,0,0,38,38,95,,,,,,,,,,,,,430.96199119999983,430.96199119999983,431.4458897999998,,,,,,2,001,21,Male,2023-04-28_11h28.31.679,face_recognition_ERP_protocol,2022.2.5,59.960306277113006,
Celebs/54_Jackie_Chan_0001.jpg,non_target,2,0,2,0,0,39,39,112,,,,,,,,,,,,,431.9477517999999,431.9477517999999,432.44682729999977,,,,,,2,001,21,Male,2023-04-28_11h28.31.679,face_recognition_ERP_protocol,2022.2.5,59.960306277113006,
Celebs/20_Margot_Robbie_0006.jpg,non_target,2,0,2,0,0,40,40,28,,,,,,,,,,,,,432.9474118999997,432.9474118999997,433.4481621,,,,,,2,001,21,Male,2023-04-28_11h28.31.679,face_recognition_ERP_protocol,2022.2.5,59.960306277113006,
Celebs/23_Daniel_Radcliffe_0002.jpg,target,2,0,2,0,0,41,41,45,,,,,,,,,,,,,433.9484745999998,433.9484745999998,434.4491764999998,,,,,,2,001,21,Male,2023-04-28_11h28.31.679,face_recognition_ERP_protocol,2022.2.5,59.960306277113006,
Celebs/18_Daniel_Radcliffe_0008.jpg,target,2,0,2,0,0,42,42,19,,,,,,,,,,,,,434.9494937999998,434.9494937999998,435.45034080000005,,,,,,2,001,21,Male,2023-04-28_11h28.31.679,face_recognition_ERP_protocol,2022.2.5,59.960306277113006,
Celebs/16_Margot_Robbie_0009.jpg,non_target,2,0,2,0,0,43,43,11,,,,,,,,,,,,,435.9506174999997,435.9506174999997,436.4512944999997,,,,,,2,001,21,Male,2023-04-28_11h28.31.679,face_recognition_ERP_protocol,2022.2.5,59.960306277113006,
Celebs/32_Jim_Parsons_0016.jpg,non_target,2,0,2,0,0,44,44,62,,,,,,,,,,,,,436.9516764,436.9516764,437.45233659999985,,,,,,2,001,21,Male,2023-04-28_11h28.31.679,face_recognition_ERP_protocol,2022.2.5,59.960306277113006,
Celebs/38_Will_Smith_0013.jpg,non_target,2,0,2,0,0,45,45,77,,,,,,,,,,,,,437.9527699999999,437.9527699999999,438.4535573999997,,,,,,2,001,21,Male,2023-04-28_11h28.31.679,face_recognition_ERP_protocol,2022.2.5,59.960306277113006,
Celebs/50_Johnny_Depp_0018.jpg,non_target,2,0,2,0,0,46,46,109,,,,,,,,,,,,,438.97073699999964,438.97073699999964,439.45458229999986,,,,,,2,001,21,Male,2023-04-28_11h28.31.679,face_recognition_ERP_protocol,2022.2.5,59.960306277113006,
Celebs/29_Scarlett_Johansson_0016.jpg,non_target,2,0,2,0,0,47,47,59,,,,,,,,,,,,,439.9586311999997,439.9586311999997,440.4390513999997,,,,,,2,001,21,Male,2023-04-28_11h28.31.679,face_recognition_ERP_protocol,2022.2.5,59.960306277113006,
Celebs/21_Daniel_Radcliffe_0002.jpg,target,2,0,2,0,0,48,48,30,,,,,,,,,,,,,440.9395592000001,440.9395592000001,441.4402734999999,,,,,,2,001,21,Male,2023-04-28_11h28.31.679,face_recognition_ERP_protocol,2022.2.5,59.960306277113006,
Celebs/18_Emma_Stone_0016.jpg,non_target,2,0,2,0,0,49,49,20,,,,,,,,,,,,,441.94085879999966,441.94085879999966,442.4413537999999,,,,,,2,001,21,Male,2023-04-28_11h28.31.679,face_recognition_ERP_protocol,2022.2.5,59.960306277113006,
Celebs/38_Jim_Parsons_0003.jpg,non_target,2,0,2,0,0,50,50,75,,,,,,,,,,,,,442.9584648,442.9584648,443.4423044,,,,,,2,001,21,Male,2023-04-28_11h28.31.679,face_recognition_ERP_protocol,2022.2.5,59.960306277113006,
Celebs/18_Emma_Watson_0004.jpg,non_target,2,0,2,0,0,51,51,21,,,,,,,,,,,,,443.9428106999999,443.9428106999999,444.44354529999964,,,,,,2,001,21,Male,2023-04-28_11h28.31.679,face_recognition_ERP_protocol,2022.2.5,59.960306277113006,
Celebs/50_Johnny_Depp_0004.jpg,non_target,2,0,2,0,0,52,52,106,,,,,,,,,,,,,444.9606184999998,444.9606184999998,445.4445010999998,,,,,,2,001,21,Male,2023-04-28_11h28.31.679,face_recognition_ERP_protocol,2022.2.5,59.960306277113006,
Celebs/43_Will_Smith_0006.jpg,non_target,2,0,2,0,0,53,53,88,,,,,,,,,,,,,445.94637239999975,445.94637239999975,446.44567589999997,,,,,,2,001,21,Male,2023-04-28_11h28.31.679,face_recognition_ERP_protocol,2022.2.5,59.960306277113006,
Celebs/21_Emma_Watson_0004.jpg,non_target,2,0,2,0,0,54,54,36,,,,,,,,,,,,,446.9460875,446.9460875,447.44668479999973,,,,,,2,001,21,Male,2023-04-28_11h28.31.679,face_recognition_ERP_protocol,2022.2.5,59.960306277113006,
Celebs/39_Neil_Patrick_Harris_0010.jpg,non_target,2,0,2,0,0,55,55,83,,,,,,,,,,,,,447.9640264999998,447.9640264999998,448.4477198999998,,,,,,2,001,21,Male,2023-04-28_11h28.31.679,face_recognition_ERP_protocol,2022.2.5,59.960306277113006,
Celebs/14_Emma_Watson_0005.jpg,non_target,2,0,2,0,0,56,56,1,,,,,,,,,,,,,448.9482745999999,448.9482745999999,449.44884909999973,,,,,,2,001,21,Male,2023-04-28_11h28.31.679,face_recognition_ERP_protocol,2022.2.5,59.960306277113006,
Celebs/16_Emma_Stone_0010.jpg,non_target,2,0,2,0,0,57,57,8,,,,,,,,,,,,,449.9491459999999,449.9491459999999,450.4499882,,,,,,2,001,21,Male,2023-04-28_11h28.31.679,face_recognition_ERP_protocol,2022.2.5,59.960306277113006,
Celebs/49_Johnny_Depp_0013.jpg,non_target,2,0,2,0,0,58,58,103,,,,,,,,,,,,,450.95050409999976,450.95050409999976,451.4510700000001,,,,,,2,001,21,Male,2023-04-28_11h28.31.679,face_recognition_ERP_protocol,2022.2.5,59.960306277113006,
Celebs/17_Margot_Robbie_0012.jpg,non_target,2,0,2,0,0,59,59,15,,,,,,,,,,,,,451.95160719999967,451.95160719999967,452.45217999999977,,,,,,2,001,21,Male,2023-04-28_11h28.31.679,face_recognition_ERP_protocol,2022.2.5,59.960306277113006,
Celebs/20_Scarlett_Johansson_0011.jpg,non_target,2,0,2,0,0,60,60,29,,,,,,,,,,,,,452.9543961999998,452.9543961999998,453.45338159999983,,,,,,2,001,21,Male,2023-04-28_11h28.31.679,face_recognition_ERP_protocol,2022.2.5,59.960306277113006,
Celebs/27_Scarlett_Johansson_0012.jpg,non_target,2,0,2,0,0,61,61,56,,,,,,,,,,,,,453.95377400000007,453.95377400000007,454.4543856,,,,,,2,001,21,Male,2023-04-28_11h28.31.679,face_recognition_ERP_protocol,2022.2.5,59.960306277113006,
Celebs/21_Daniel_Radcliffe_0008.jpg,target,2,0,2,0,0,62,62,31,,,,,,,,,,,,,454.9564812999997,454.9564812999997,455.4556173000001,,,,,,2,001,21,Male,2023-04-28_11h28.31.679,face_recognition_ERP_protocol,2022.2.5,59.960306277113006,
Celebs/19_Margot_Robbie_0004.jpg,non_target,2,0,2,0,0,63,63,24,,,,,,,,,,,,,455.9393184999999,455.9393184999999,456.439922,,,,,,2,001,21,Male,2023-04-28_11h28.31.679,face_recognition_ERP_protocol,2022.2.5,59.960306277113006,
Celebs/40_Jim_Parsons_0015.jpg,non_target,2,0,2,0,0,64,64,85,,,,,,,,,,,,,456.9417281000001,456.9417281000001,457.4411768,,,,,,2,001,21,Male,2023-04-28_11h28.31.679,face_recognition_ERP_protocol,2022.2.5,59.960306277113006,
Celebs/32_Jim_Parsons_0010.jpg,non_target,2,0,2,0,0,65,65,61,,,,,,,,,,,,,457.94218329999967,457.94218329999967,458.442188,,,,,,2,001,21,Male,2023-04-28_11h28.31.679,face_recognition_ERP_protocol,2022.2.5,59.960306277113006,
Celebs/21_Emma_Stone_0002.jpg,non_target,2,0,2,0,0,66,66,34,,,,,,,,,,,,,458.94329560000006,458.94329560000006,459.44343359999993,,,,,,2,001,21,Male,2023-04-28_11h28.31.679,face_recognition_ERP_protocol,2022.2.5,59.960306277113006,
Celebs/39_Jim_Parsons_0010.jpg,non_target,2,0,2,0,0,67,67,81,,,,,,,,,,,,,459.9445587,459.9445587,460.4443990999998,,,,,,2,001,21,Male,2023-04-28_11h28.31.679,face_recognition_ERP_protocol,2022.2.5,59.960306277113006,
Celebs/28_Scarlett_Johansson_0005.jpg,non_target,2,0,2,0,0,68,68,57,,,,,,,,,,,,,460.94477719999986,460.94477719999986,461.4455101999997,,,,,,2,001,21,Male,2023-04-28_11h28.31.679,face_recognition_ERP_protocol,2022.2.5,59.960306277113006,
Celebs/39_Jim_Parsons_0008.jpg,non_target,2,0,2,0,0,69,69,80,,,,,,,,,,,,,461.94633589999967,461.94633589999967,462.4465959999998,,,,,,2,001,21,Male,2023-04-28_11h28.31.679,face_recognition_ERP_protocol,2022.2.5,59.960306277113006,
Celebs/18_Daniel_Radcliffe_0007.jpg,target,2,0,2,0,0,70,70,18,,,,,,,,,,,,,462.94826839999996,462.94826839999996,463.44762139999966,,,,,,2,001,21,Male,2023-04-28_11h28.31.679,face_recognition_ERP_protocol,2022.2.5,59.960306277113006,
Celebs/18_Daniel_Radcliffe_0002.jpg,target,2,0,2,0,0,71,71,17,,,,,,,,,,,,,463.9481017999997,463.9481017999997,464.4487386999999,,,,,,2,001,21,Male,2023-04-28_11h28.31.679,face_recognition_ERP_protocol,2022.2.5,59.960306277113006,
Celebs/48_Johnny_Depp_0003.jpg,non_target,2,0,2,0,0,72,72,101,,,,,,,,,,,,,464.9658024999999,464.9658024999999,465.44969949999995,,,,,,2,001,21,Male,2023-04-28_11h28.31.679,face_recognition_ERP_protocol,2022.2.5,59.960306277113006,
Celebs/22_Scarlett_Johansson_0005.jpg,non_target,2,0,2,0,0,73,73,44,,,,,,,,,,,,,465.95054230000005,465.95054230000005,466.4508516000001,,,,,,2,001,21,Male,2023-04-28_11h28.31.679,face_recognition_ERP_protocol,2022.2.5,59.960306277113006,
Celebs/44_Will_Smith_0015.jpg,non_target,2,0,2,0,0,74,74,93,,,,,,,,,,,,,466.95119939999995,466.95119939999995,467.451873,,,,,,2,001,21,Male,2023-04-28_11h28.31.679,face_recognition_ERP_protocol,2022.2.5,59.960306277113006,
Celebs/22_Margot_Robbie_0010.jpg,non_target,2,0,2,0,0,75,75,43,,,,,,,,,,,,,467.95241369999985,467.95241369999985,468.4532445,,,,,,2,001,21,Male,2023-04-28_11h28.31.679,face_recognition_ERP_protocol,2022.2.5,59.960306277113006,
Celebs/24_Daniel_Radcliffe_0017.jpg,target,2,0,2,0,0,76,76,49,,,,,,,,,,,,,468.9533283999999,468.9533283999999,469.4541432000001,,,,,,2,001,21,Male,2023-04-28_11h28.31.679,face_recognition_ERP_protocol,2022.2.5,59.960306277113006,
Celebs/55_Jackie_Chan_0008.jpg,non_target,2,0,2,0,0,77,77,115,,,,,,,,,,,,,469.95843739999964,469.95843739999964,470.4554297999998,,,,,,2,001,21,Male,2023-04-28_11h28.31.679,face_recognition_ERP_protocol,2022.2.5,59.960306277113006,
Celebs/21_Daniel_Radcliffe_0012.jpg,target,2,0,2,0,0,78,78,33,,,,,,,,,,,,,470.9557328000001,470.9557328000001,471.439699,,,,,,2,001,21,Male,2023-04-28_11h28.31.679,face_recognition_ERP_protocol,2022.2.5,59.960306277113006,
Celebs/47_Johnny_Depp_0004.jpg,non_target,2,0,2,0,0,79,79,98,,,,,,,,,,,,,471.9407980000001,471.9407980000001,472.4408690999999,,,,,,2,001,21,Male,2023-04-28_11h28.31.679,face_recognition_ERP_protocol,2022.2.5,59.960306277113006,
Celebs/55_Jackie_Chan_0003.jpg,non_target,2,0,2,0,0,80,80,114,,,,,,,,,,,,,472.94129840000005,472.94129840000005,473.4418387999999,,,,,,2,001,21,Male,2023-04-28_11h28.31.679,face_recognition_ERP_protocol,2022.2.5,59.960306277113006,
Celebs/23_Emma_Stone_0014.jpg,non_target,2,0,2,0,0,81,81,48,,,,,,,,,,,,,473.94238069999983,473.94238069999983,474.44300440000006,,,,,,2,001,21,Male,2023-04-28_11h28.31.679,face_recognition_ERP_protocol,2022.2.5,59.960306277113006,
Celebs/47_Johnny_Depp_0003.jpg,non_target,2,0,2,0,0,82,82,97,,,,,,,,,,,,,474.94515839999985,474.94515839999985,475.44398379999984,,,,,,2,001,21,Male,2023-04-28_11h28.31.679,face_recognition_ERP_protocol,2022.2.5,59.960306277113006,
Celebs/39_Neil_Patrick_Harris_0001.jpg,non_target,2,0,2,0,0,83,83,82,,,,,,,,,,,,,475.9612093999999,475.9612093999999,476.4450142999999,,,,,,2,001,21,Male,2023-04-28_11h28.31.679,face_recognition_ERP_protocol,2022.2.5,59.960306277113006,
Celebs/15_Margot_Robbie_0005.jpg,non_target,2,0,2,0,0,84,84,5,,,,,,,,,,,,,476.96215949999987,476.96215949999987,477.4462232000001,,,,,,2,001,21,Male,2023-04-28_11h28.31.679,face_recognition_ERP_protocol,2022.2.5,59.960306277113006,
Celebs/58_Jackie_Chan_0005.jpg,non_target,2,0,2,0,0,85,85,119,,,,,,,,,,,,,477.9482475,477.9482475,478.4473804999998,,,,,,2,001,21,Male,2023-04-28_11h28.31.679,face_recognition_ERP_protocol,2022.2.5,59.960306277113006,
Celebs/57_Jackie_Chan_0010.jpg,non_target,2,0,2,0,0,86,86,118,,,,,,,,,,,,,478.9479415999999,478.9479415999999,479.44855430000007,,,,,,2,001,21,Male,2023-04-28_11h28.31.679,face_recognition_ERP_protocol,2022.2.5,59.960306277113006,
Celebs/32_Jim_Parsons_0018.jpg,non_target,2,0,2,0,0,87,87,63,,,,,,,,,,,,,479.94976610000003,479.94976610000003,480.4496049999998,,,,,,2,001,21,Male,2023-04-28_11h28.31.679,face_recognition_ERP_protocol,2022.2.5,59.960306277113006,
Celebs/36_Neil_Patrick_Harris_0007.jpg,non_target,2,0,2,0,0,88,88,70,,,,,,,,,,,,,480.949881,480.949881,481.4507282999998,,,,,,2,001,21,Male,2023-04-28_11h28.31.679,face_recognition_ERP_protocol,2022.2.5,59.960306277113006,
Celebs/40_Will_Smith_0012.jpg,non_target,2,0,2,0,0,89,89,86,,,,,,,,,,,,,481.95122360000005,481.95122360000005,482.45170069999995,,,,,,2,001,21,Male,2023-04-28_11h28.31.679,face_recognition_ERP_protocol,2022.2.5,59.960306277113006,
Celebs/22_Emma_Watson_0010.jpg,non_target,2,0,2,0,0,90,90,42,,,,,,,,,,,,,482.9523187,482.9523187,483.45284479999964,,,,,,2,001,21,Male,2023-04-28_11h28.31.679,face_recognition_ERP_protocol,2022.2.5,59.960306277113006,
Celebs/31_Neil_Patrick_Harris_0008.jpg,non_target,2,0,2,0,0,91,91,60,,,,,,,,,,,,,483.9532476999998,483.9532476999998,484.4539765999998,,,,,,2,001,21,Male,2023-04-28_11h28.31.679,face_recognition_ERP_protocol,2022.2.5,59.960306277113006,
Celebs/16_Emma_Stone_0014.jpg,non_target,2,0,2,0,0,92,92,10,,,,,,,,,,,,,484.97104880000006,484.97104880000006,485.4549385,,,,,,2,001,21,Male,2023-04-28_11h28.31.679,face_recognition_ERP_protocol,2022.2.5,59.960306277113006,
Celebs/37_Will_Smith_0015.jpg,non_target,2,0,2,0,0,93,93,74,,,,,,,,,,,,,485.95759199999975,485.95759199999975,486.4393104999999,,,,,,2,001,21,Male,2023-04-28_11h28.31.679,face_recognition_ERP_protocol,2022.2.5,59.960306277113006,
Celebs/33_Jim_Parsons_0011.jpg,non_target,2,0,2,0,0,94,94,64,,,,,,,,,,,,,486.94054529999994,486.94054529999994,487.4404328999999,,,,,,2,001,21,Male,2023-04-28_11h28.31.679,face_recognition_ERP_protocol,2022.2.5,59.960306277113006,
Celebs/51_Jackie_Chan_0006.jpg,non_target,2,0,2,0,0,95,95,110,,,,,,,,,,,,,487.9409009000001,487.9409009000001,488.4416275999997,,,,,,2,001,21,Male,2023-04-28_11h28.31.679,face_recognition_ERP_protocol,2022.2.5,59.960306277113006,
Celebs/48_Johnny_Depp_0001.jpg,non_target,2,0,2,0,0,96,96,100,,,,,,,,,,,,,488.94192619999967,488.94192619999967,489.4425643999998,,,,,,2,001,21,Male,2023-04-28_11h28.31.679,face_recognition_ERP_protocol,2022.2.5,59.960306277113006,
Celebs/21_Scarlett_Johansson_0007.jpg,non_target,2,0,2,0,0,97,97,38,,,,,,,,,,,,,489.94294489999993,489.94294489999993,490.4436725999999,,,,,,2,001,21,Male,2023-04-28_11h28.31.679,face_recognition_ERP_protocol,2022.2.5,59.960306277113006,
Celebs/48_Johnny_Depp_0005.jpg,non_target,2,0,2,0,0,98,98,102,,,,,,,,,,,,,490.94419119999975,490.94419119999975,491.4447817,,,,,,2,001,21,Male,2023-04-28_11h28.31.679,face_recognition_ERP_protocol,2022.2.5,59.960306277113006,
Celebs/20_Emma_Stone_0005.jpg,non_target,2,0,2,0,0,99,99,25,,,,,,,,,,,,,491.94510969999965,491.94510969999965,492.4459466999997,,,,,,2,001,21,Male,2023-04-28_11h28.31.679,face_recognition_ERP_protocol,2022.2.5,59.960306277113006,
Celebs/21_Emma_Stone_0003.jpg,non_target,2,0,2,0,0,100,100,35,,,,,,,,,,,,,492.9463688999999,492.9463688999999,493.44699079999964,,,,,,2,001,21,Male,2023-04-28_11h28.31.679,face_recognition_ERP_protocol,2022.2.5,59.960306277113006,
Celebs/57_Jackie_Chan_0008.jpg,non_target,2,0,2,0,0,101,101,117,,,,,,,,,,,,,493.9473889000001,493.9473889000001,494.44810430000007,,,,,,2,001,21,Male,2023-04-28_11h28.31.679,face_recognition_ERP_protocol,2022.2.5,59.960306277113006,
Celebs/14_Emma_Watson_0015.jpg,non_target,2,0,2,0,0,102,102,4,,,,,,,,,,,,,494.9484715999997,494.9484715999997,495.44922429999997,,,,,,2,001,21,Male,2023-04-28_11h28.31.679,face_recognition_ERP_protocol,2022.2.5,59.960306277113006,
Celebs/42_Will_Smith_0012.jpg,non_target,2,0,2,0,0,103,103,87,,,,,,,,,,,,,495.94975109999996,495.94975109999996,496.45030849999966,,,,,,2,001,21,Male,2023-04-28_11h28.31.679,face_recognition_ERP_protocol,2022.2.5,59.960306277113006,
Celebs/35_Neil_Patrick_Harris_0009.jpg,non_target,2,0,2,0,0,104,104,68,,,,,,,,,,,,,496.95074350000004,496.95074350000004,497.4513539999998,,,,,,2,001,21,Male,2023-04-28_11h28.31.679,face_recognition_ERP_protocol,2022.2.5,59.960306277113006,
Celebs/45_Johnny_Depp_0003.jpg,non_target,2,0,2,0,0,105,105,94,,,,,,,,,,,,,497.96855479999977,497.96855479999977,498.45245269999987,,,,,,2,001,21,Male,2023-04-28_11h28.31.679,face_recognition_ERP_protocol,2022.2.5,59.960306277113006,
Celebs/15_Margot_Robbie_0012.jpg,non_target,2,0,2,0,0,106,106,6,,,,,,,,,,,,,498.9531727999997,498.9531727999997,499.45345580000003,,,,,,2,001,21,Male,2023-04-28_11h28.31.679,face_recognition_ERP_protocol,2022.2.5,59.960306277113006,
Celebs/52_Jackie_Chan_0002.jpg,non_target,2,0,2,0,0,107,107,111,,,,,,,,,,,,,499.95402239999976,499.95402239999976,500.45476089999966,,,,,,2,001,21,Male,2023-04-28_11h28.31.679,face_recognition_ERP_protocol,2022.2.5,59.960306277113006,
Celebs/19_Emma_Stone_0006.jpg,non_target,2,0,2,0,0,108,108,22,,,,,,,,,,,,,500.95653249999987,500.95653249999987,501.4391335,,,,,,2,001,21,Male,2023-04-28_11h28.31.679,face_recognition_ERP_protocol,2022.2.5,59.960306277113006,
Celebs/20_Emma_Watson_0007.jpg,non_target,2,0,2,0,0,109,109,26,,,,,,,,,,,,,501.94174539999995,501.94174539999995,502.4402660999999,,,,,,2,001,21,Male,2023-04-28_11h28.31.679,face_recognition_ERP_protocol,2022.2.5,59.960306277113006,
Celebs/44_Will_Smith_0006.jpg,non_target,2,0,2,0,0,110,110,91,,,,,,,,,,,,,502.94075699999985,502.94075699999985,503.44154709999975,,,,,,2,001,21,Male,2023-04-28_11h28.31.679,face_recognition_ERP_protocol,2022.2.5,59.960306277113006,
Celebs/36_Neil_Patrick_Harris_0010.jpg,non_target,2,0,2,0,0,111,111,71,,,,,,,,,,,,,503.9583729000001,503.9583729000001,504.44238429999996,,,,,,2,001,21,Male,2023-04-28_11h28.31.679,face_recognition_ERP_protocol,2022.2.5,59.960306277113006,
Celebs/55_Jackie_Chan_0015.jpg,non_target,2,0,2,0,0,112,112,116,,,,,,,,,,,,,504.9429396999999,504.9429396999999,505.44355129999985,,,,,,2,001,21,Male,2023-04-28_11h28.31.679,face_recognition_ERP_protocol,2022.2.5,59.960306277113006,
Celebs/21_Daniel_Radcliffe_0009.jpg,target,2,0,2,0,0,113,113,32,,,,,,,,,,,,,506.0129744999999,506.0129744999999,506.4446869999997,,,,,,2,001,21,Male,2023-04-28_11h28.31.679,face_recognition_ERP_protocol,2022.2.5,59.960306277113006,
Celebs/24_Emma_Stone_0015.jpg,non_target,2,0,2,0,0,114,114,50,,,,,,,,,,,,,506.9453103999999,506.9453103999999,507.44562069999984,,,,,,2,001,21,Male,2023-04-28_11h28.31.679,face_recognition_ERP_protocol,2022.2.5,59.960306277113006,
Celebs/22_Emma_Watson_0001.jpg,non_target,2,0,2,0,0,115,115,40,,,,,,,,,,,,,507.94607419999966,507.94607419999966,508.4466156999997,,,,,,2,001,21,Male,2023-04-28_11h28.31.679,face_recognition_ERP_protocol,2022.2.5,59.960306277113006,
Celebs/26_Scarlett_Johansson_0003.jpg,non_target,2,0,2,0,0,116,116,54,,,,,,,,,,,,,508.9638323999998,508.9638323999998,509.44779470000003,,,,,,2,001,21,Male,2023-04-28_11h28.31.679,face_recognition_ERP_protocol,2022.2.5,59.960306277113006,
Celebs/50_Johnny_Depp_0008.jpg,non_target,2,0,2,0,0,117,117,107,,,,,,,,,,,,,509.94806149999977,509.94806149999977,510.4489082,,,,,,2,001,21,Male,2023-04-28_11h28.31.679,face_recognition_ERP_protocol,2022.2.5,59.960306277113006,
Celebs/54_Jackie_Chan_0014.jpg,non_target,2,0,2,0,0,118,118,113,,,,,,,,,,,,,510.94927149999967,510.94927149999967,511.4499873999998,,,,,,2,001,21,Male,2023-04-28_11h28.31.679,face_recognition_ERP_protocol,2022.2.5,59.960306277113006,
Celebs/17_Emma_Watson_0006.jpg,non_target,2,0,2,0,0,119,119,13,,,,,,,,,,,,,511.95067629999994,511.95067629999994,512.4511103999998,,,,,,2,001,21,Male,2023-04-28_11h28.31.679,face_recognition_ERP_protocol,2022.2.5,59.960306277113006,
Celebs/50_Johnny_Depp_0010.jpg,non_target,3,0,3,0,0,0,0,108,,,,,,,,,,,,,524.3986422999997,524.3986422999997,524.8648120999997,512.9515505999998,512.9515505999998,space,11.363347200000135,,2,001,21,Male,2023-04-28_11h28.31.679,face_recognition_ERP_protocol,2022.2.5,59.960306277113006,
Celebs/16_Emma_Stone_0012.jpg,non_target,3,0,3,0,0,1,1,9,,,,,,,,,,,,,525.3651910999997,525.3651910999997,525.8657788999999,,,,,,2,001,21,Male,2023-04-28_11h28.31.679,face_recognition_ERP_protocol,2022.2.5,59.960306277113006,
Celebs/29_Scarlett_Johansson_0016.jpg,non_target,3,0,3,0,0,2,2,59,,,,,,,,,,,,,526.3501766999998,526.3501766999998,526.8502611999997,,,,,,2,001,21,Male,2023-04-28_11h28.31.679,face_recognition_ERP_protocol,2022.2.5,59.960306277113006,
Celebs/24_Scarlett_Johansson_0001.jpg,non_target,3,0,3,0,0,3,3,51,,,,,,,,,,,,,527.3510754999998,527.3510754999998,527.8512335999999,,,,,,2,001,21,Male,2023-04-28_11h28.31.679,face_recognition_ERP_protocol,2022.2.5,59.960306277113006,
Celebs/44_Will_Smith_0007.jpg,non_target,3,0,3,0,0,4,4,92,,,,,,,,,,,,,528.3520475999999,528.3520475999999,528.8523789000001,,,,,,2,001,21,Male,2023-04-28_11h28.31.679,face_recognition_ERP_protocol,2022.2.5,59.960306277113006,
Celebs/23_Daniel_Radcliffe_0019.jpg,target,3,0,3,0,0,5,5,47,,,,,,,,,,,,,529.3527389000001,529.3527389000001,529.8534639,,,,,,2,001,21,Male,2023-04-28_11h28.31.679,face_recognition_ERP_protocol,2022.2.5,59.960306277113006,
Celebs/16_Margot_Robbie_0009.jpg,non_target,3,0,3,0,0,6,6,11,,,,,,,,,,,,,530.3563147999998,530.3563147999998,530.8547504999997,,,,,,2,001,21,Male,2023-04-28_11h28.31.679,face_recognition_ERP_protocol,2022.2.5,59.960306277113006,
Celebs/50_Jackie_Chan_0012.jpg,non_target,3,0,3,0,0,7,7,104,,,,,,,,,,,,,531.3565848999997,531.3565848999997,531.8557756,,,,,,2,001,21,Male,2023-04-28_11h28.31.679,face_recognition_ERP_protocol,2022.2.5,59.960306277113006,
Celebs/17_Margot_Robbie_0012.jpg,non_target,3,0,3,0,0,8,8,15,,,,,,,,,,,,,532.3564833999999,532.3564833999999,532.8568471999997,,,,,,2,001,21,Male,2023-04-28_11h28.31.679,face_recognition_ERP_protocol,2022.2.5,59.960306277113006,
Celebs/21_Emma_Stone_0002.jpg,non_target,3,0,3,0,0,9,9,34,,,,,,,,,,,,,533.3573429999997,533.3573429999997,533.8579765,,,,,,2,001,21,Male,2023-04-28_11h28.31.679,face_recognition_ERP_protocol,2022.2.5,59.960306277113006,
Celebs/45_Will_Smith_0014.jpg,non_target,3,0,3,0,0,10,10,96,,,,,,,,,,,,,534.3595848999998,534.3595848999998,534.8592933999998,,,,,,2,001,21,Male,2023-04-28_11h28.31.679,face_recognition_ERP_protocol,2022.2.5,59.960306277113006,
Celebs/21_Emma_Watson_0004.jpg,non_target,3,0,3,0,0,11,11,36,,,,,,,,,,,,,535.3602717999997,535.3602717999997,535.8602207999998,,,,,,2,001,21,Male,2023-04-28_11h28.31.679,face_recognition_ERP_protocol,2022.2.5,59.960306277113006,
Celebs/27_Scarlett_Johansson_0012.jpg,non_target,3,0,3,0,0,12,12,56,,,,,,,,,,,,,536.3607093,536.3607093,536.8613445999999,,,,,,2,001,21,Male,2023-04-28_11h28.31.679,face_recognition_ERP_protocol,2022.2.5,59.960306277113006,
Celebs/57_Jackie_Chan_0010.jpg,non_target,3,0,3,0,0,13,13,118,,,,,,,,,,,,,537.3616749999997,537.3616749999997,537.8623760999999,,,,,,2,001,21,Male,2023-04-28_11h28.31.679,face_recognition_ERP_protocol,2022.2.5,59.960306277113006,
Celebs/49_Johnny_Depp_0013.jpg,non_target,3,0,3,0,0,14,14,103,,,,,,,,,,,,,538.3628448,538.3628448,538.8634465,,,,,,2,001,21,Male,2023-04-28_11h28.31.679,face_recognition_ERP_protocol,2022.2.5,59.960306277113006,
Celebs/45_Johnny_Depp_0003.jpg,non_target,3,0,3,0,0,15,15,94,,,,,,,,,,,,,539.3643198999998,539.3643198999998,539.8645585999998,,,,,,2,001,21,Male,2023-04-28_11h28.31.679,face_recognition_ERP_protocol,2022.2.5,59.960306277113006,
Celebs/20_Scarlett_Johansson_0011.jpg,non_target,3,0,3,0,0,16,16,29,,,,,,,,,,,,,540.3650671999999,540.3650671999999,540.8658514999997,,,,,,2,001,21,Male,2023-04-28_11h28.31.679,face_recognition_ERP_protocol,2022.2.5,59.960306277113006,
Celebs/57_Jackie_Chan_0008.jpg,non_target,3,0,3,0,0,17,17,117,,,,,,,,,,,,,541.3493215999997,541.3493215999997,541.8500472000001,,,,,,2,001,21,Male,2023-04-28_11h28.31.679,face_recognition_ERP_protocol,2022.2.5,59.960306277113006,
Celebs/55_Jackie_Chan_0003.jpg,non_target,3,0,3,0,0,18,18,114,,,,,,,,,,,,,542.3505250999997,542.3505250999997,542.8511386,,,,,,2,001,21,Male,2023-04-28_11h28.31.679,face_recognition_ERP_protocol,2022.2.5,59.960306277113006,
Celebs/24_Scarlett_Johansson_0011.jpg,non_target,3,0,3,0,0,19,19,52,,,,,,,,,,,,,543.3529223999999,543.3529223999999,543.8521990999998,,,,,,2,001,21,Male,2023-04-28_11h28.31.679,face_recognition_ERP_protocol,2022.2.5,59.960306277113006,
Celebs/40_Will_Smith_0012.jpg,non_target,3,0,3,0,0,20,20,86,,,,,,,,,,,,,544.3539532999998,544.3539532999998,544.8533864999999,,,,,,2,001,21,Male,2023-04-28_11h28.31.679,face_recognition_ERP_protocol,2022.2.5,59.960306277113006,
Celebs/36_Neil_Patrick_Harris_0010.jpg,non_target,3,0,3,0,0,21,21,71,,,,,,,,,,,,,545.3564527999997,545.3564527999997,545.8542647999998,,,,,,2,001,21,Male,2023-04-28_11h28.31.679,face_recognition_ERP_protocol,2022.2.5,59.960306277113006,
Celebs/58_Jackie_Chan_0005.jpg,non_target,3,0,3,0,0,22,22,119,,,,,,,,,,,,,546.3562773999997,546.3562773999997,546.8554730999999,,,,,,2,001,21,Male,2023-04-28_11h28.31.679,face_recognition_ERP_protocol,2022.2.5,59.960306277113006,
Celebs/38_Neil_Patrick_Harris_0006.jpg,non_target,3,0,3,0,0,23,23,76,,,,,,,,,,,,,547.3559799999998,547.3559799999998,547.8566793,,,,,,2,001,21,Male,2023-04-28_11h28.31.679,face_recognition_ERP_protocol,2022.2.5,59.960306277113006,
Celebs/50_Johnny_Depp_0008.jpg,non_target,3,0,3,0,0,24,24,107,,,,,,,,,,,,,548.3572501999997,548.3572501999997,548.8576960999999,,,,,,2,001,21,Male,2023-04-28_11h28.31.679,face_recognition_ERP_protocol,2022.2.5,59.960306277113006,
Celebs/38_Jim_Parsons_0003.jpg,non_target,3,0,3,0,0,25,25,75,,,,,,,,,,,,,549.3582044999998,549.3582044999998,549.8588133999997,,,,,,2,001,21,Male,2023-04-28_11h28.31.679,face_recognition_ERP_protocol,2022.2.5,59.960306277113006,
Celebs/14_Emma_Watson_0008.jpg,non_target,3,0,3,0,0,26,26,2,,,,,,,,,,,,,550.3609834999997,550.3609834999997,550.8598634,,,,,,2,001,21,Male,2023-04-28_11h28.31.679,face_recognition_ERP_protocol,2022.2.5,59.960306277113006,
Celebs/14_Emma_Watson_0005.jpg,non_target,3,0,3,0,0,27,27,1,,,,,,,,,,,,,551.3625603,551.3625603,551.8610140000001,,,,,,2,001,21,Male,2023-04-28_11h28.31.679,face_recognition_ERP_protocol,2022.2.5,59.960306277113006,
Celebs/21_Daniel_Radcliffe_0002.jpg,target,3,0,3,0,0,28,28,30,,,,,,,,,,,,,552.3618812999998,552.3618812999998,552.8620348999998,,,,,,2,001,21,Male,2023-04-28_11h28.31.679,face_recognition_ERP_protocol,2022.2.5,59.960306277113006,
Celebs/39_Jim_Parsons_0001.jpg,non_target,3,0,3,0,0,29,29,78,,,,,,,,,,,,,553.3640866000001,553.3640866000001,553.8631854999999,,,,,,2,001,21,Male,2023-04-28_11h28.31.679,face_recognition_ERP_protocol,2022.2.5,59.960306277113006,
Celebs/32_Jim_Parsons_0018.jpg,non_target,3,0,3,0,0,30,30,63,,,,,,,,,,,,,554.3636796000001,554.3636796000001,554.8642657,,,,,,2,001,21,Male,2023-04-28_11h28.31.679,face_recognition_ERP_protocol,2022.2.5,59.960306277113006,
Celebs/38_Will_Smith_0013.jpg,non_target,3,0,3,0,0,31,31,77,,,,,,,,,,,,,555.3650106999999,555.3650106999999,555.8652536999998,,,,,,2,001,21,Male,2023-04-28_11h28.31.679,face_recognition_ERP_protocol,2022.2.5,59.960306277113006,
Celebs/14_Emma_Watson_0004.jpg,non_target,3,0,3,0,0,32,32,0,,,,,,,,,,,,,556.365812,556.365812,556.8497493999998,,,,,,2,001,21,Male,2023-04-28_11h28.31.679,face_recognition_ERP_protocol,2022.2.5,59.960306277113006,
Celebs/20_Margot_Robbie_0004.jpg,non_target,3,0,3,0,0,33,33,27,,,,,,,,,,,,,557.351392,557.351392,557.8508535999999,,,,,,2,001,21,Male,2023-04-28_11h28.31.679,face_recognition_ERP_protocol,2022.2.5,59.960306277113006,
Celebs/17_Margot_Robbie_0014.jpg,non_target,3,0,3,0,0,34,34,16,,,,,,,,,,,,,558.3514333999997,558.3514333999997,558.8519701,,,,,,2,001,21,Male,2023-04-28_11h28.31.679,face_recognition_ERP_protocol,2022.2.5,59.960306277113006,
Celebs/48_Johnny_Depp_0003.jpg,non_target,3,0,3,0,0,35,35,101,,,,,,,,,,,,,559.3523559,559.3523559,559.8530155999997,,,,,,2,001,21,Male,2023-04-28_11h28.31.679,face_recognition_ERP_protocol,2022.2.5,59.960306277113006,
Celebs/40_Jim_Parsons_0015.jpg,non_target,3,0,3,0,0,36,36,85,,,,,,,,,,,,,560.3534121999996,560.3534121999996,560.8541443999998,,,,,,2,001,21,Male,2023-04-28_11h28.31.679,face_recognition_ERP_protocol,2022.2.5,59.960306277113006,
Celebs/43_Will_Smith_0007.jpg,non_target,3,0,3,0,0,37,37,89,,,,,,,,,,,,,561.3551135999996,561.3551135999996,561.8551778000001,,,,,,2,001,21,Male,2023-04-28_11h28.31.679,face_recognition_ERP_protocol,2022.2.5,59.960306277113006,
Celebs/37_Will_Smith_0015.jpg,non_target,3,0,3,0,0,38,38,74,,,,,,,,,,,,,562.3558447,562.3558447,562.8563205,,,,,,2,001,21,Male,2023-04-28_11h28.31.679,face_recognition_ERP_protocol,2022.2.5,59.960306277113006,
Celebs/22_Margot_Robbie_0010.jpg,non_target,3,0,3,0,0,39,39,43,,,,,,,,,,,,,563.3577010999998,563.3577010999998,563.8574515999999,,,,,,2,001,21,Male,2023-04-28_11h28.31.679,face_recognition_ERP_protocol,2022.2.5,59.960306277113006,
Celebs/33_Jim_Parsons_0011.jpg,non_target,3,0,3,0,0,40,40,64,,,,,,,,,,,,,564.3580398999998,564.3580398999998,564.8587327,,,,,,2,001,21,Male,2023-04-28_11h28.31.679,face_recognition_ERP_protocol,2022.2.5,59.960306277113006,
Celebs/51_Jackie_Chan_0006.jpg,non_target,3,0,3,0,0,41,41,110,,,,,,,,,,,,,565.3590056999997,565.3590056999997,565.8595891999998,,,,,,2,001,21,Male,2023-04-28_11h28.31.679,face_recognition_ERP_protocol,2022.2.5,59.960306277113006,
Celebs/19_Emma_Stone_0006.jpg,non_target,3,0,3,0,0,42,42,22,,,,,,,,,,,,,566.3604805999998,566.3604805999998,566.8606743,,,,,,2,001,21,Male,2023-04-28_11h28.31.679,face_recognition_ERP_protocol,2022.2.5,59.960306277113006,
Celebs/17_Emma_Watson_0006.jpg,non_target,3,0,3,0,0,43,43,13,,,,,,,,,,,,,567.3612085999998,567.3612085999998,567.8618072999998,,,,,,2,001,21,Male,2023-04-28_11h28.31.679,face_recognition_ERP_protocol,2022.2.5,59.960306277113006,
Celebs/34_Neil_Patrick_Harris_0007.jpg,non_target,3,0,3,0,0,44,44,67,,,,,,,,,,,,,568.3622449999998,568.3622449999998,568.862963,,,,,,2,001,21,Male,2023-04-28_11h28.31.679,face_recognition_ERP_protocol,2022.2.5,59.960306277113006,
Celebs/34_Neil_Patrick_Harris_0004.jpg,non_target,3,0,3,0,0,45,45,66,,,,,,,,,,,,,569.3649449,569.3649449,569.8640066999997,,,,,,2,001,21,Male,2023-04-28_11h28.31.679,face_recognition_ERP_protocol,2022.2.5,59.960306277113006,
Celebs/18_Daniel_Radcliffe_0008.jpg,target,3,0,3,0,0,46,46,19,,,,,,,,,,,,,570.3652199999997,570.3652199999997,570.8651261999998,,,,,,2,001,21,Male,2023-04-28_11h28.31.679,face_recognition_ERP_protocol,2022.2.5,59.960306277113006,
Celebs/18_Emma_Watson_0004.jpg,non_target,3,0,3,0,0,47,47,21,,,,,,,,,,,,,571.3680246999998,571.3680246999998,571.8495419999999,,,,,,2,001,21,Male,2023-04-28_11h28.31.679,face_recognition_ERP_protocol,2022.2.5,59.960306277113006,
Celebs/23_Emma_Stone_0014.jpg,non_target,3,0,3,0,0,48,48,48,,,,,,,,,,,,,572.3520943999997,572.3520943999997,572.8507083,,,,,,2,001,21,Male,2023-04-28_11h28.31.679,face_recognition_ERP_protocol,2022.2.5,59.960306277113006,
Celebs/31_Neil_Patrick_Harris_0008.jpg,non_target,3,0,3,0,0,49,49,60,,,,,,,,,,,,,573.3519888000001,573.3519888000001,573.8516823,,,,,,2,001,21,Male,2023-04-28_11h28.31.679,face_recognition_ERP_protocol,2022.2.5,59.960306277113006,
Celebs/25_Scarlett_Johansson_0010.jpg,non_target,3,0,3,0,0,50,50,53,,,,,,,,,,,,,574.3527282,574.3527282,574.8529306,,,,,,2,001,21,Male,2023-04-28_11h28.31.679,face_recognition_ERP_protocol,2022.2.5,59.960306277113006,
Celebs/47_Johnny_Depp_0003.jpg,non_target,3,0,3,0,0,51,51,97,,,,,,,,,,,,,575.3531791,575.3531791,575.8538715,,,,,,2,001,21,Male,2023-04-28_11h28.31.679,face_recognition_ERP_protocol,2022.2.5,59.960306277113006,
Celebs/48_Johnny_Depp_0005.jpg,non_target,3,0,3,0,0,52,52,102,,,,,,,,,,,,,576.3553615999999,576.3553615999999,576.8549963,,,,,,2,001,21,Male,2023-04-28_11h28.31.679,face_recognition_ERP_protocol,2022.2.5,59.960306277113006,
Celebs/40_Jim_Parsons_0004.jpg,non_target,3,0,3,0,0,53,53,84,,,,,,,,,,,,,577.3565288,577.3565288,577.8559336999997,,,,,,2,001,21,Male,2023-04-28_11h28.31.679,face_recognition_ERP_protocol,2022.2.5,59.960306277113006,
Celebs/50_Johnny_Depp_0004.jpg,non_target,3,0,3,0,0,54,54,106,,,,,,,,,,,,,578.3565323999997,578.3565323999997,578.8571919000001,,,,,,2,001,21,Male,2023-04-28_11h28.31.679,face_recognition_ERP_protocol,2022.2.5,59.960306277113006,
Celebs/18_Daniel_Radcliffe_0002.jpg,target,3,0,3,0,0,55,55,17,,,,,,,,,,,,,579.3587322999997,579.3587322999997,579.8583965999997,,,,,,2,001,21,Male,2023-04-28_11h28.31.679,face_recognition_ERP_protocol,2022.2.5,59.960306277113006,
Celebs/21_Daniel_Radcliffe_0009.jpg,target,3,0,3,0,0,56,56,32,,,,,,,,,,,,,580.3588219999997,580.3588219999997,580.8594073999998,,,,,,2,001,21,Male,2023-04-28_11h28.31.679,face_recognition_ERP_protocol,2022.2.5,59.960306277113006,
Celebs/21_Daniel_Radcliffe_0012.jpg,target,3,0,3,0,0,57,57,33,,,,,,,,,,,,,581.3601839999997,581.3601839999997,581.8605247999999,,,,,,2,001,21,Male,2023-04-28_11h28.31.679,face_recognition_ERP_protocol,2022.2.5,59.960306277113006,
Celebs/22_Scarlett_Johansson_0005.jpg,non_target,3,0,3,0,0,58,58,44,,,,,,,,,,,,,582.3609837999998,582.3609837999998,582.8615599999998,,,,,,2,001,21,Male,2023-04-28_11h28.31.679,face_recognition_ERP_protocol,2022.2.5,59.960306277113006,
Celebs/18_Daniel_Radcliffe_0007.jpg,target,3,0,3,0,0,59,59,18,,,,,,,,,,,,,583.3619997000001,583.3619997000001,583.8626466000001,,,,,,2,001,21,Male,2023-04-28_11h28.31.679,face_recognition_ERP_protocol,2022.2.5,59.960306277113006,
Celebs/37_Neil_Patrick_Harris_0014.jpg,non_target,3,0,3,0,0,60,60,73,,,,,,,,,,,,,584.3637454999998,584.3637454999998,584.8637390999997,,,,,,2,001,21,Male,2023-04-28_11h28.31.679,face_recognition_ERP_protocol,2022.2.5,59.960306277113006,
Celebs/39_Jim_Parsons_0008.jpg,non_target,3,0,3,0,0,61,61,80,,,,,,,,,,,,,585.3657109999999,585.3657109999999,585.8648537999998,,,,,,2,001,21,Male,2023-04-28_11h28.31.679,face_recognition_ERP_protocol,2022.2.5,59.960306277113006,
Celebs/36_Jim_Parsons_0011.jpg,non_target,3,0,3,0,0,62,62,69,,,,,,,,,,,,,586.3663269999997,586.3663269999997,586.8660188999997,,,,,,2,001,21,Male,2023-04-28_11h28.31.679,face_recognition_ERP_protocol,2022.2.5,59.960306277113006,
Celebs/21_Margot_Robbie_0003.jpg,non_target,3,0,3,0,0,63,63,37,,,,,,,,,,,,,587.3496213999997,587.3496213999997,587.8502742000001,,,,,,2,001,21,Male,2023-04-28_11h28.31.679,face_recognition_ERP_protocol,2022.2.5,59.960306277113006,
Celebs/26_Scarlett_Johansson_0008.jpg,non_target,3,0,3,0,0,64,64,55,,,,,,,,,,,,,588.3509005000001,588.3509005000001,588.8514725999999,,,,,,2,001,21,Male,2023-04-28_11h28.31.679,face_recognition_ERP_protocol,2022.2.5,59.960306277113006,
Celebs/48_Johnny_Depp_0001.jpg,non_target,3,0,3,0,0,65,65,100,,,,,,,,,,,,,589.3518537999998,589.3518537999998,589.8525489999997,,,,,,2,001,21,Male,2023-04-28_11h28.31.679,face_recognition_ERP_protocol,2022.2.5,59.960306277113006,
Celebs/24_Daniel_Radcliffe_0017.jpg,target,3,0,3,0,0,66,66,49,,,,,,,,,,,,,590.3530237,590.3530237,590.8536443999997,,,,,,2,001,21,Male,2023-04-28_11h28.31.679,face_recognition_ERP_protocol,2022.2.5,59.960306277113006,
Celebs/47_Johnny_Depp_0004.jpg,non_target,3,0,3,0,0,67,67,98,,,,,,,,,,,,,591.3540410999999,591.3540410999999,591.8545332999997,,,,,,2,001,21,Male,2023-04-28_11h28.31.679,face_recognition_ERP_protocol,2022.2.5,59.960306277113006,
Celebs/43_Will_Smith_0006.jpg,non_target,3,0,3,0,0,68,68,88,,,,,,,,,,,,,592.3551359999997,592.3551359999997,592.8557293999997,,,,,,2,001,21,Male,2023-04-28_11h28.31.679,face_recognition_ERP_protocol,2022.2.5,59.960306277113006,
Celebs/15_Margot_Robbie_0005.jpg,non_target,3,0,3,0,0,69,69,5,,,,,,,,,,,,,593.3562526000001,593.3562526000001,593.8567801999998,,,,,,2,001,21,Male,2023-04-28_11h28.31.679,face_recognition_ERP_protocol,2022.2.5,59.960306277113006,
