image,stimulus,trial_block.thisRepN,trial_block.thisTrialN,trial_block.thisN,trial_block.thisIndex,trials.thisRepN,trials.thisTrialN,trials.thisN,trials.thisIndex,welcome_text.started,instructions_text.started,spacebar_key.started,spacebar_key.keys,spacebar_key.rt,eye_text.started,eye_text.stopped,text.started,text.stopped,closedEyes_text.started,beep.started,closedEyes_text.stopped,trialImage.started,polygon.started,blank_text.started,trialBlockText.started,new_trialblock.started,new_trialblock.keys,new_trialblock.rt,goodbye_text.started,participant,session,age,gender,date,expName,psychopyVersion,frameRate,
,,,,,,,,,,40.30103829999962,42.30321109999977,42.30321109999977,space,21.67820490000031,,,,,,,,,,,,,,,,3,001,25,Male,2023-04-28_18h16.13.595,face_recognition_ERP_protocol,2022.2.5,59.93450357464808,
Celebs/36_Jim_Parsons_0011.jpg,non_target,0,0,0,0,0,0,0,69,,,,,,64.01048219999984,79.0099809999997,79.0099809999997,94.00976349999974,94.00976349999974,109.00953509999981,109.0095438999997,109.12624599999981,109.12624599999981,109.5433696,,,,,,3,001,25,Male,2023-04-28_18h16.13.595,face_recognition_ERP_protocol,2022.2.5,59.93450357464808,
Celebs/33_Jim_Parsons_0011.jpg,non_target,0,0,0,0,0,1,1,64,,,,,,,,,,,,,110.04404139999997,110.04404139999997,110.52784119999978,,,,,,3,001,25,Male,2023-04-28_18h16.13.595,face_recognition_ERP_protocol,2022.2.5,59.93450357464808,
Celebs/39_Neil_Patrick_Harris_0010.jpg,non_target,0,0,0,0,0,2,2,83,,,,,,,,,,,,,111.02829840000004,111.02829840000004,111.5290700999999,,,,,,3,001,25,Male,2023-04-28_18h16.13.595,face_recognition_ERP_protocol,2022.2.5,59.93450357464808,
Celebs/29_Scarlett_Johansson_0010.jpg,non_target,0,0,0,0,0,3,3,58,,,,,,,,,,,,,112.03128960000004,112.03128960000004,112.53035520000003,,,,,,3,001,25,Male,2023-04-28_18h16.13.595,face_recognition_ERP_protocol,2022.2.5,59.93450357464808,
Celebs/43_Will_Smith_0007.jpg,non_target,0,0,0,0,0,4,4,89,,,,,,,,,,,,,113.03058509999983,113.03058509999983,113.5313959,,,,,,3,001,25,Male,2023-04-28_18h16.13.595,face_recognition_ERP_protocol,2022.2.5,59.93450357464808,
Celebs/43_Will_Smith_0010.jpg,non_target,0,0,0,0,0,5,5,90,,,,,,,,,,,,,114.03186430000005,114.03186430000005,114.53237420000005,,,,,,3,001,25,Male,2023-04-28_18h16.13.595,face_recognition_ERP_protocol,2022.2.5,59.93450357464808,
Celebs/49_Johnny_Depp_0013.jpg,non_target,0,0,0,0,0,6,6,103,,,,,,,,,,,,,115.03290130000005,115.03290130000005,115.53349949999983,,,,,,3,001,25,Male,2023-04-28_18h16.13.595,face_recognition_ERP_protocol,2022.2.5,59.93450357464808,
Celebs/36_Neil_Patrick_Harris_0007.jpg,non_target,0,0,0,0,0,7,7,70,,,,,,,,,,,,,116.0338354999999,116.0338354999999,116.5345914999998,,,,,,3,001,25,Male,2023-04-28_18h16.13.595,face_recognition_ERP_protocol,2022.2.5,59.93450357464808,
Celebs/45_Will_Smith_0010.jpg,non_target,0,0,0,0,0,8,8,95,,,,,,,,,,,,,117.03776789999984,117.03776789999984,117.53558619999967,,,,,,3,001,25,Male,2023-04-28_18h16.13.595,face_recognition_ERP_protocol,2022.2.5,59.93450357464808,
Celebs/54_Jackie_Chan_0014.jpg,non_target,0,0,0,0,0,9,9,113,,,,,,,,,,,,,118.03755219999994,118.03755219999994,118.5367524999997,,,,,,3,001,25,Male,2023-04-28_18h16.13.595,face_recognition_ERP_protocol,2022.2.5,59.93450357464808,
Celebs/18_Daniel_Radcliffe_0002.jpg,target,0,0,0,0,0,10,10,17,,,,,,,,,,,,,119.03740879999987,119.03740879999987,119.53793459999997,,,,,,3,001,25,Male,2023-04-28_18h16.13.595,face_recognition_ERP_protocol,2022.2.5,59.93450357464808,
Celebs/16_Emma_Stone_0014.jpg,non_target,0,0,0,0,0,11,11,10,,,,,,,,,,,,,120.0389854,120.0389854,120.5388740999997,,,,,,3,001,25,Male,2023-04-28_18h16.13.595,face_recognition_ERP_protocol,2022.2.5,59.93450357464808,
Celebs/23_Daniel_Radcliffe_0019.jpg,target,0,0,0,0,0,12,12,47,,,,,,,,,,,,,121.0399683999999,121.0399683999999,121.54015029999982,,,,,,3,001,25,Male,2023-04-28_18h16.13.595,face_recognition_ERP_protocol,2022.2.5,59.93450357464808,
Celebs/44_Will_Smith_0006.jpg,non_target,0,0,0,0,0,13,13,91,,,,,,,,,,,,,122.04054869999982,122.04054869999982,122.54114739999977,,,,,,3,001,25,Male,2023-04-28_18h16.13.595,face_recognition_ERP_protocol,2022.2.5,59.93450357464808,
Celebs/22_Emma_Watson_0001.jpg,non_target,0,0,0,0,0,14,14,40,,,,,,,,,,,,,123.04271769999968,123.04271769999968,123.54235769999968,,,,,,3,001,25,Male,2023-04-28_18h16.13.595,face_recognition_ERP_protocol,2022.2.5,59.93450357464808,
Celebs/24_Emma_Stone_0015.jpg,non_target,0,0,0,0,0,15,15,50,,,,,,,,,,,,,124.04374749999988,124.04374749999988,124.54337869999972,,,,,,3,001,25,Male,2023-04-28_18h16.13.595,face_recognition_ERP_protocol,2022.2.5,59.93450357464808,
Celebs/48_Johnny_Depp_0001.jpg,non_target,0,0,0,0,0,16,16,100,,,,,,,,,,,,,125.04607480000004,125.04607480000004,125.52779969999983,,,,,,3,001,25,Male,2023-04-28_18h16.13.595,face_recognition_ERP_protocol,2022.2.5,59.93450357464808,
Celebs/21_Scarlett_Johansson_0007.jpg,non_target,0,0,0,0,0,17,17,38,,,,,,,,,,,,,126.02962609999986,126.02962609999986,126.5288043999999,,,,,,3,001,25,Male,2023-04-28_18h16.13.595,face_recognition_ERP_protocol,2022.2.5,59.93450357464808,
Celebs/18_Emma_Stone_0016.jpg,non_target,0,0,0,0,0,18,18,20,,,,,,,,,,,,,127.02930930000002,127.02930930000002,127.53005940000003,,,,,,3,001,25,Male,2023-04-28_18h16.13.595,face_recognition_ERP_protocol,2022.2.5,59.93450357464808,
Celebs/39_Neil_Patrick_Harris_0001.jpg,non_target,0,0,0,0,0,19,19,82,,,,,,,,,,,,,128.03142119999984,128.03142119999984,128.53096019999975,,,,,,3,001,25,Male,2023-04-28_18h16.13.595,face_recognition_ERP_protocol,2022.2.5,59.93450357464808,
Celebs/27_Scarlett_Johansson_0012.jpg,non_target,0,0,0,0,0,20,20,56,,,,,,,,,,,,,129.03156420000005,129.03156420000005,129.53206060000002,,,,,,3,001,25,Male,2023-04-28_18h16.13.595,face_recognition_ERP_protocol,2022.2.5,59.93450357464808,
Celebs/18_Emma_Watson_0004.jpg,non_target,0,0,0,0,0,21,21,21,,,,,,,,,,,,,130.03334529999984,130.03334529999984,130.53327169999966,,,,,,3,001,25,Male,2023-04-28_18h16.13.595,face_recognition_ERP_protocol,2022.2.5,59.93450357464808,
Celebs/39_Jim_Parsons_0010.jpg,non_target,0,0,0,0,0,22,22,81,,,,,,,,,,,,,131.03450999999995,131.03450999999995,131.53416639999978,,,,,,3,001,25,Male,2023-04-28_18h16.13.595,face_recognition_ERP_protocol,2022.2.5,59.93450357464808,
Celebs/55_Jackie_Chan_0003.jpg,non_target,0,0,0,0,0,23,23,114,,,,,,,,,,,,,132.03462579999996,132.03462579999996,132.53536899999972,,,,,,3,001,25,Male,2023-04-28_18h16.13.595,face_recognition_ERP_protocol,2022.2.5,59.93450357464808,
Celebs/38_Will_Smith_0013.jpg,non_target,0,0,0,0,0,24,24,77,,,,,,,,,,,,,133.03734289999966,133.03734289999966,133.53639639999983,,,,,,3,001,25,Male,2023-04-28_18h16.13.595,face_recognition_ERP_protocol,2022.2.5,59.93450357464808,
Celebs/17_Margot_Robbie_0006.jpg,non_target,0,0,0,0,0,25,25,14,,,,,,,,,,,,,134.0370958999997,134.0370958999997,134.53761529999974,,,,,,3,001,25,Male,2023-04-28_18h16.13.595,face_recognition_ERP_protocol,2022.2.5,59.93450357464808,
Celebs/50_Jackie_Chan_0014.jpg,non_target,0,0,0,0,0,26,26,105,,,,,,,,,,,,,135.03941989999976,135.03941989999976,135.53871499999968,,,,,,3,001,25,Male,2023-04-28_18h16.13.595,face_recognition_ERP_protocol,2022.2.5,59.93450357464808,
Celebs/20_Emma_Stone_0005.jpg,non_target,0,0,0,0,0,27,27,25,,,,,,,,,,,,,136.04076529999975,136.04076529999975,136.53978009999992,,,,,,3,001,25,Male,2023-04-28_18h16.13.595,face_recognition_ERP_protocol,2022.2.5,59.93450357464808,
Celebs/50_Johnny_Depp_0004.jpg,non_target,0,0,0,0,0,28,28,106,,,,,,,,,,,,,137.04041189999998,137.04041189999998,137.5408137999998,,,,,,3,001,25,Male,2023-04-28_18h16.13.595,face_recognition_ERP_protocol,2022.2.5,59.93450357464808,
Celebs/22_Emma_Stone_0013.jpg,non_target,0,0,0,0,0,29,29,39,,,,,,,,,,,,,138.04349509999975,138.04349509999975,138.54189659999975,,,,,,3,001,25,Male,2023-04-28_18h16.13.595,face_recognition_ERP_protocol,2022.2.5,59.93450357464808,
Celebs/20_Margot_Robbie_0004.jpg,non_target,0,0,0,0,0,30,30,27,,,,,,,,,,,,,139.0422550999997,139.0422550999997,139.5431638,,,,,,3,001,25,Male,2023-04-28_18h16.13.595,face_recognition_ERP_protocol,2022.2.5,59.93450357464808,
Celebs/47_Johnny_Depp_0009.jpg,non_target,0,0,0,0,0,31,31,99,,,,,,,,,,,,,140.0443919999998,140.0443919999998,140.52736490000007,,,,,,3,001,25,Male,2023-04-28_18h16.13.595,face_recognition_ERP_protocol,2022.2.5,59.93450357464808,
Celebs/21_Emma_Watson_0004.jpg,non_target,0,0,0,0,0,32,32,36,,,,,,,,,,,,,141.02787050000006,141.02787050000006,141.5284284999998,,,,,,3,001,25,Male,2023-04-28_18h16.13.595,face_recognition_ERP_protocol,2022.2.5,59.93450357464808,
Celebs/34_Neil_Patrick_Harris_0007.jpg,non_target,0,0,0,0,0,33,33,67,,,,,,,,,,,,,142.02906529999973,142.02906529999973,142.52968340000007,,,,,,3,001,25,Male,2023-04-28_18h16.13.595,face_recognition_ERP_protocol,2022.2.5,59.93450357464808,
Celebs/33_Neil_Patrick_Harris_0011.jpg,non_target,0,0,0,0,0,34,34,65,,,,,,,,,,,,,143.03175829999964,143.03175829999964,143.5307112999999,,,,,,3,001,25,Male,2023-04-28_18h16.13.595,face_recognition_ERP_protocol,2022.2.5,59.93450357464808,
Celebs/31_Neil_Patrick_Harris_0008.jpg,non_target,0,0,0,0,0,35,35,60,,,,,,,,,,,,,144.03246209999998,144.03246209999998,144.5318546999997,,,,,,3,001,25,Male,2023-04-28_18h16.13.595,face_recognition_ERP_protocol,2022.2.5,59.93450357464808,
Celebs/57_Jackie_Chan_0010.jpg,non_target,0,0,0,0,0,36,36,118,,,,,,,,,,,,,145.0328096999997,145.0328096999997,145.53286489999982,,,,,,3,001,25,Male,2023-04-28_18h16.13.595,face_recognition_ERP_protocol,2022.2.5,59.93450357464808,
Celebs/39_Jim_Parsons_0001.jpg,non_target,0,0,0,0,0,37,37,78,,,,,,,,,,,,,146.0349154999999,146.0349154999999,146.53405239999984,,,,,,3,001,25,Male,2023-04-28_18h16.13.595,face_recognition_ERP_protocol,2022.2.5,59.93450357464808,
Celebs/14_Emma_Watson_0013.jpg,non_target,0,0,0,0,0,38,38,3,,,,,,,,,,,,,147.0343915999997,147.0343915999997,147.53507249999984,,,,,,3,001,25,Male,2023-04-28_18h16.13.595,face_recognition_ERP_protocol,2022.2.5,59.93450357464808,
Celebs/25_Scarlett_Johansson_0010.jpg,non_target,0,0,0,0,0,39,39,53,,,,,,,,,,,,,148.0355881999999,148.0355881999999,148.53633020000007,,,,,,3,001,25,Male,2023-04-28_18h16.13.595,face_recognition_ERP_protocol,2022.2.5,59.93450357464808,
Celebs/48_Johnny_Depp_0005.jpg,non_target,0,0,0,0,0,40,40,102,,,,,,,,,,,,,149.03654019999976,149.03654019999976,149.5372408999997,,,,,,3,001,25,Male,2023-04-28_18h16.13.595,face_recognition_ERP_protocol,2022.2.5,59.93450357464808,
Celebs/19_Margot_Robbie_0004.jpg,non_target,0,0,0,0,0,41,41,24,,,,,,,,,,,,,150.03788589999976,150.03788589999976,150.53837989999965,,,,,,3,001,25,Male,2023-04-28_18h16.13.595,face_recognition_ERP_protocol,2022.2.5,59.93450357464808,
Celebs/58_Jackie_Chan_0005.jpg,non_target,0,0,0,0,0,42,42,119,,,,,,,,,,,,,151.03876199999968,151.03876199999968,151.53945559999966,,,,,,3,001,25,Male,2023-04-28_18h16.13.595,face_recognition_ERP_protocol,2022.2.5,59.93450357464808,
Celebs/21_Margot_Robbie_0003.jpg,non_target,0,0,0,0,0,43,43,37,,,,,,,,,,,,,152.03997230000004,152.03997230000004,152.54070309999997,,,,,,3,001,25,Male,2023-04-28_18h16.13.595,face_recognition_ERP_protocol,2022.2.5,59.93450357464808,
Celebs/17_Daniel_Radcliffe_0007.jpg,target,0,0,0,0,0,44,44,12,,,,,,,,,,,,,153.04111939999984,153.04111939999984,153.5417712999997,,,,,,3,001,25,Male,2023-04-28_18h16.13.595,face_recognition_ERP_protocol,2022.2.5,59.93450357464808,
Celebs/20_Scarlett_Johansson_0011.jpg,non_target,0,0,0,0,0,45,45,29,,,,,,,,,,,,,154.04218449999962,154.04218449999962,154.54283189999978,,,,,,3,001,25,Male,2023-04-28_18h16.13.595,face_recognition_ERP_protocol,2022.2.5,59.93450357464808,
Celebs/44_Will_Smith_0015.jpg,non_target,0,0,0,0,0,46,46,93,,,,,,,,,,,,,155.04487249999966,155.04487249999966,155.54387299999962,,,,,,3,001,25,Male,2023-04-28_18h16.13.595,face_recognition_ERP_protocol,2022.2.5,59.93450357464808,
Celebs/50_Johnny_Depp_0008.jpg,non_target,0,0,0,0,0,47,47,107,,,,,,,,,,,,,156.0285589,156.0285589,156.52816140000004,,,,,,3,001,25,Male,2023-04-28_18h16.13.595,face_recognition_ERP_protocol,2022.2.5,59.93450357464808,
Celebs/16_Emma_Stone_0010.jpg,non_target,0,0,0,0,0,48,48,8,,,,,,,,,,,,,157.0287718999998,157.0287718999998,157.52939109999988,,,,,,3,001,25,Male,2023-04-28_18h16.13.595,face_recognition_ERP_protocol,2022.2.5,59.93450357464808,
Celebs/21_Daniel_Radcliffe_0009.jpg,target,0,0,0,0,0,49,49,32,,,,,,,,,,,,,158.02967239999998,158.02967239999998,158.5304056,,,,,,3,001,25,Male,2023-04-28_18h16.13.595,face_recognition_ERP_protocol,2022.2.5,59.93450357464808,
Celebs/38_Jim_Parsons_0003.jpg,non_target,0,0,0,0,0,50,50,75,,,,,,,,,,,,,159.03092199999992,159.03092199999992,159.5316386999998,,,,,,3,001,25,Male,2023-04-28_18h16.13.595,face_recognition_ERP_protocol,2022.2.5,59.93450357464808,
Celebs/24_Scarlett_Johansson_0001.jpg,non_target,0,0,0,0,0,51,51,51,,,,,,,,,,,,,160.03336869999976,160.03336869999976,160.53256929999998,,,,,,3,001,25,Male,2023-04-28_18h16.13.595,face_recognition_ERP_protocol,2022.2.5,59.93450357464808,
Celebs/39_Jim_Parsons_0004.jpg,non_target,0,0,0,0,0,52,52,79,,,,,,,,,,,,,161.03431890000002,161.03431890000002,161.53368339999997,,,,,,3,001,25,Male,2023-04-28_18h16.13.595,face_recognition_ERP_protocol,2022.2.5,59.93450357464808,
Celebs/55_Jackie_Chan_0015.jpg,non_target,0,0,0,0,0,53,53,116,,,,,,,,,,,,,162.03420579999965,162.03420579999965,162.53485299999966,,,,,,3,001,25,Male,2023-04-28_18h16.13.595,face_recognition_ERP_protocol,2022.2.5,59.93450357464808,
Celebs/21_Emma_Stone_0002.jpg,non_target,0,0,0,0,0,54,54,34,,,,,,,,,,,,,163.0353667999998,163.0353667999998,163.53593980000005,,,,,,3,001,25,Male,2023-04-28_18h16.13.595,face_recognition_ERP_protocol,2022.2.5,59.93450357464808,
Celebs/48_Johnny_Depp_0003.jpg,non_target,0,0,0,0,0,55,55,101,,,,,,,,,,,,,164.0373227,164.0373227,164.53696039999977,,,,,,3,001,25,Male,2023-04-28_18h16.13.595,face_recognition_ERP_protocol,2022.2.5,59.93450357464808,
Celebs/18_Daniel_Radcliffe_0007.jpg,target,0,0,0,0,0,56,56,18,,,,,,,,,,,,,165.0373282999999,165.0373282999999,165.53816029999962,,,,,,3,001,25,Male,2023-04-28_18h16.13.595,face_recognition_ERP_protocol,2022.2.5,59.93450357464808,
Celebs/26_Scarlett_Johansson_0003.jpg,non_target,0,0,0,0,0,57,57,54,,,,,,,,,,,,,166.03849589999982,166.03849589999982,166.53923719999966,,,,,,3,001,25,Male,2023-04-28_18h16.13.595,face_recognition_ERP_protocol,2022.2.5,59.93450357464808,
Celebs/24_Scarlett_Johansson_0011.jpg,non_target,0,0,0,0,0,58,58,52,,,,,,,,,,,,,167.03988729999992,167.03988729999992,167.5403683999998,,,,,,3,001,25,Male,2023-04-28_18h16.13.595,face_recognition_ERP_protocol,2022.2.5,59.93450357464808,
Celebs/54_Jackie_Chan_0001.jpg,non_target,0,0,0,0,0,59,59,112,,,,,,,,,,,,,168.04074279999986,168.04074279999986,168.5413165,,,,,,3,001,25,Male,2023-04-28_18h16.13.595,face_recognition_ERP_protocol,2022.2.5,59.93450357464808,
Celebs/29_Scarlett_Johansson_0016.jpg,non_target,0,0,0,0,0,60,60,59,,,,,,,,,,,,,169.04356789999974,169.04356789999974,169.54252799999995,,,,,,3,001,25,Male,2023-04-28_18h16.13.595,face_recognition_ERP_protocol,2022.2.5,59.93450357464808,
Celebs/24_Daniel_Radcliffe_0017.jpg,target,0,0,0,0,0,61,61,49,,,,,,,,,,,,,170.04308109999965,170.04308109999965,170.54353379999975,,,,,,3,001,25,Male,2023-04-28_18h16.13.595,face_recognition_ERP_protocol,2022.2.5,59.93450357464808,
Celebs/51_Jackie_Chan_0006.jpg,non_target,0,0,0,0,0,62,62,110,,,,,,,,,,,,,171.0440593999997,171.0440593999997,171.52787949999993,,,,,,3,001,25,Male,2023-04-28_18h16.13.595,face_recognition_ERP_protocol,2022.2.5,59.93450357464808,
Celebs/14_Emma_Watson_0008.jpg,non_target,0,0,0,0,0,63,63,2,,,,,,,,,,,,,172.0284161999998,172.0284161999998,172.52900259999979,,,,,,3,001,25,Male,2023-04-28_18h16.13.595,face_recognition_ERP_protocol,2022.2.5,59.93450357464808,
Celebs/22_Emma_Watson_0003.jpg,non_target,0,0,0,0,0,64,64,41,,,,,,,,,,,,,173.03218470000002,173.03218470000002,173.53022519999968,,,,,,3,001,25,Male,2023-04-28_18h16.13.595,face_recognition_ERP_protocol,2022.2.5,59.93450357464808,
Celebs/17_Margot_Robbie_0012.jpg,non_target,0,0,0,0,0,65,65,15,,,,,,,,,,,,,174.03062079999972,174.03062079999972,174.53132340000002,,,,,,3,001,25,Male,2023-04-28_18h16.13.595,face_recognition_ERP_protocol,2022.2.5,59.93450357464808,
Celebs/14_Emma_Watson_0004.jpg,non_target,0,0,0,0,0,66,66,0,,,,,,,,,,,,,175.0317326999998,175.0317326999998,175.53238059999967,,,,,,3,001,25,Male,2023-04-28_18h16.13.595,face_recognition_ERP_protocol,2022.2.5,59.93450357464808,
Celebs/20_Margot_Robbie_0006.jpg,non_target,0,0,0,0,0,67,67,28,,,,,,,,,,,,,176.03441329999987,176.03441329999987,176.5336072,,,,,,3,001,25,Male,2023-04-28_18h16.13.595,face_recognition_ERP_protocol,2022.2.5,59.93450357464808,
Celebs/15_Margot_Robbie_0005.jpg,non_target,0,0,0,0,0,68,68,5,,,,,,,,,,,,,177.03528909999977,177.03528909999977,177.53459599999996,,,,,,3,001,25,Male,2023-04-28_18h16.13.595,face_recognition_ERP_protocol,2022.2.5,59.93450357464808,
Celebs/14_Emma_Watson_0005.jpg,non_target,0,0,0,0,0,69,69,1,,,,,,,,,,,,,178.03556069999968,178.03556069999968,178.5357409999997,,,,,,3,001,25,Male,2023-04-28_18h16.13.595,face_recognition_ERP_protocol,2022.2.5,59.93450357464808,
Celebs/26_Scarlett_Johansson_0008.jpg,non_target,0,0,0,0,0,70,70,55,,,,,,,,,,,,,179.03613419999965,179.03613419999965,179.5366796999997,,,,,,3,001,25,Male,2023-04-28_18h16.13.595,face_recognition_ERP_protocol,2022.2.5,59.93450357464808,
Celebs/21_Daniel_Radcliffe_0002.jpg,target,0,0,0,0,0,71,71,30,,,,,,,,,,,,,180.03878349999968,180.03878349999968,180.53778869999996,,,,,,3,001,25,Male,2023-04-28_18h16.13.595,face_recognition_ERP_protocol,2022.2.5,59.93450357464808,
Celebs/52_Jackie_Chan_0002.jpg,non_target,0,0,0,0,0,72,72,111,,,,,,,,,,,,,181.03833369999984,181.03833369999984,181.53894779999973,,,,,,3,001,25,Male,2023-04-28_18h16.13.595,face_recognition_ERP_protocol,2022.2.5,59.93450357464808,
Celebs/40_Will_Smith_0012.jpg,non_target,0,0,0,0,0,73,73,86,,,,,,,,,,,,,182.03951329999973,182.03951329999973,182.5400282999999,,,,,,3,001,25,Male,2023-04-28_18h16.13.595,face_recognition_ERP_protocol,2022.2.5,59.93450357464808,
Celebs/35_Neil_Patrick_Harris_0009.jpg,non_target,0,0,0,0,0,74,74,68,,,,,,,,,,,,,183.04133279999996,183.04133279999996,183.54132089999985,,,,,,3,001,25,Male,2023-04-28_18h16.13.595,face_recognition_ERP_protocol,2022.2.5,59.93450357464808,
Celebs/45_Will_Smith_0014.jpg,non_target,0,0,0,0,0,75,75,96,,,,,,,,,,,,,184.04367719999982,184.04367719999982,184.5422494999998,,,,,,3,001,25,Male,2023-04-28_18h16.13.595,face_recognition_ERP_protocol,2022.2.5,59.93450357464808,
Celebs/32_Jim_Parsons_0018.jpg,non_target,0,0,0,0,0,76,76,63,,,,,,,,,,,,,185.04267919999984,185.04267919999984,185.54337149999992,,,,,,3,001,25,Male,2023-04-28_18h16.13.595,face_recognition_ERP_protocol,2022.2.5,59.93450357464808,
Celebs/40_Jim_Parsons_0004.jpg,non_target,0,0,0,0,0,77,77,84,,,,,,,,,,,,,186.04363739999962,186.04363739999962,186.5277532,,,,,,3,001,25,Male,2023-04-28_18h16.13.595,face_recognition_ERP_protocol,2022.2.5,59.93450357464808,
Celebs/44_Will_Smith_0007.jpg,non_target,0,0,0,0,0,78,78,92,,,,,,,,,,,,,187.03016009999965,187.03016009999965,187.52885539999988,,,,,,3,001,25,Male,2023-04-28_18h16.13.595,face_recognition_ERP_protocol,2022.2.5,59.93450357464808,
Celebs/39_Jim_Parsons_0008.jpg,non_target,0,0,0,0,0,79,79,80,,,,,,,,,,,,,188.03023219999977,188.03023219999977,188.52992429999995,,,,,,3,001,25,Male,2023-04-28_18h16.13.595,face_recognition_ERP_protocol,2022.2.5,59.93450357464808,
Celebs/18_Daniel_Radcliffe_0008.jpg,target,0,0,0,0,0,80,80,19,,,,,,,,,,,,,189.0317898999997,189.0317898999997,189.53099459999976,,,,,,3,001,25,Male,2023-04-28_18h16.13.595,face_recognition_ERP_protocol,2022.2.5,59.93450357464808,
Celebs/37_Will_Smith_0015.jpg,non_target,0,0,0,0,0,81,81,74,,,,,,,,,,,,,190.03244989999985,190.03244989999985,190.53199479999967,,,,,,3,001,25,Male,2023-04-28_18h16.13.595,face_recognition_ERP_protocol,2022.2.5,59.93450357464808,
Celebs/14_Emma_Watson_0015.jpg,non_target,0,0,0,0,0,82,82,4,,,,,,,,,,,,,191.03258779999987,191.03258779999987,191.53316730000006,,,,,,3,001,25,Male,2023-04-28_18h16.13.595,face_recognition_ERP_protocol,2022.2.5,59.93450357464808,
Celebs/23_Daniel_Radcliffe_0010.jpg,target,0,0,0,0,0,83,83,46,,,,,,,,,,,,,192.03358279999975,192.03358279999975,192.5341973999998,,,,,,3,001,25,Male,2023-04-28_18h16.13.595,face_recognition_ERP_protocol,2022.2.5,59.93450357464808,
Celebs/19_Margot_Robbie_0001.jpg,non_target,0,0,0,0,0,84,84,23,,,,,,,,,,,,,193.0359429,193.0359429,193.53553299999976,,,,,,3,001,25,Male,2023-04-28_18h16.13.595,face_recognition_ERP_protocol,2022.2.5,59.93450357464808,
Celebs/16_Emma_Stone_0012.jpg,non_target,0,0,0,0,0,85,85,9,,,,,,,,,,,,,194.03591189999997,194.03591189999997,194.53640309999992,,,,,,3,001,25,Male,2023-04-28_18h16.13.595,face_recognition_ERP_protocol,2022.2.5,59.93450357464808,
Celebs/47_Johnny_Depp_0004.jpg,non_target,0,0,0,0,0,86,86,98,,,,,,,,,,,,,195.03686979999975,195.03686979999975,195.53768149999996,,,,,,3,001,25,Male,2023-04-28_18h16.13.595,face_recognition_ERP_protocol,2022.2.5,59.93450357464808,
Celebs/23_Daniel_Radcliffe_0002.jpg,target,0,0,0,0,0,87,87,45,,,,,,,,,,,,,196.03963489999978,196.03963489999978,196.53868879999982,,,,,,3,001,25,Male,2023-04-28_18h16.13.595,face_recognition_ERP_protocol,2022.2.5,59.93450357464808,
Celebs/22_Emma_Watson_0010.jpg,non_target,0,0,0,0,0,88,88,42,,,,,,,,,,,,,197.03963199999998,197.03963199999998,197.5396407999997,,,,,,3,001,25,Male,2023-04-28_18h16.13.595,face_recognition_ERP_protocol,2022.2.5,59.93450357464808,
Celebs/40_Jim_Parsons_0015.jpg,non_target,0,0,0,0,0,89,89,85,,,,,,,,,,,,,198.04014430000007,198.04014430000007,198.54100219999964,,,,,,3,001,25,Male,2023-04-28_18h16.13.595,face_recognition_ERP_protocol,2022.2.5,59.93450357464808,
Celebs/50_Johnny_Depp_0018.jpg,non_target,0,0,0,0,0,90,90,109,,,,,,,,,,,,,199.04126210000004,199.04126210000004,199.54182479999963,,,,,,3,001,25,Male,2023-04-28_18h16.13.595,face_recognition_ERP_protocol,2022.2.5,59.93450357464808,
Celebs/22_Scarlett_Johansson_0005.jpg,non_target,0,0,0,0,0,91,91,44,,,,,,,,,,,,,200.04248830000006,200.04248830000006,200.5429439999998,,,,,,3,001,25,Male,2023-04-28_18h16.13.595,face_recognition_ERP_protocol,2022.2.5,59.93450357464808,
Celebs/45_Johnny_Depp_0003.jpg,non_target,0,0,0,0,0,92,92,94,,,,,,,,,,,,,201.04428039999993,201.04428039999993,201.54405909999969,,,,,,3,001,25,Male,2023-04-28_18h16.13.595,face_recognition_ERP_protocol,2022.2.5,59.93450357464808,
Celebs/43_Will_Smith_0006.jpg,non_target,0,0,0,0,0,93,93,88,,,,,,,,,,,,,202.0296328999998,202.0296328999998,202.52858749999996,,,,,,3,001,25,Male,2023-04-28_18h16.13.595,face_recognition_ERP_protocol,2022.2.5,59.93450357464808,
Celebs/50_Johnny_Depp_0010.jpg,non_target,0,0,0,0,0,94,94,108,,,,,,,,,,,,,203.03191819999984,203.03191819999984,203.52975239999978,,,,,,3,001,25,Male,2023-04-28_18h16.13.595,face_recognition_ERP_protocol,2022.2.5,59.93450357464808,
Celebs/16_Emma_Stone_0008.jpg,non_target,0,0,0,0,0,95,95,7,,,,,,,,,,,,,204.03020130000004,204.03020130000004,204.53058519999968,,,,,,3,001,25,Male,2023-04-28_18h16.13.595,face_recognition_ERP_protocol,2022.2.5,59.93450357464808,
Celebs/34_Neil_Patrick_Harris_0004.jpg,non_target,0,0,0,0,0,96,96,66,,,,,,,,,,,,,205.0311004,205.0311004,205.53176919999987,,,,,,3,001,25,Male,2023-04-28_18h16.13.595,face_recognition_ERP_protocol,2022.2.5,59.93450357464808,
Celebs/23_Emma_Stone_0014.jpg,non_target,0,0,0,0,0,97,97,48,,,,,,,,,,,,,206.03354479999962,206.03354479999962,206.53294949999963,,,,,,3,001,25,Male,2023-04-28_18h16.13.595,face_recognition_ERP_protocol,2022.2.5,59.93450357464808,
Celebs/15_Margot_Robbie_0012.jpg,non_target,0,0,0,0,0,98,98,6,,,,,,,,,,,,,207.03463620000002,207.03463620000002,207.53402979999964,,,,,,3,001,25,Male,2023-04-28_18h16.13.595,face_recognition_ERP_protocol,2022.2.5,59.93450357464808,
Celebs/20_Emma_Watson_0007.jpg,non_target,0,0,0,0,0,99,99,26,,,,,,,,,,,,,208.03434339999967,208.03434339999967,208.5350859,,,,,,3,001,25,Male,2023-04-28_18h16.13.595,face_recognition_ERP_protocol,2022.2.5,59.93450357464808,
Celebs/21_Daniel_Radcliffe_0008.jpg,target,0,0,0,0,0,100,100,31,,,,,,,,,,,,,209.03558209999983,209.03558209999983,209.53616169999987,,,,,,3,001,25,Male,2023-04-28_18h16.13.595,face_recognition_ERP_protocol,2022.2.5,59.93450357464808,
Celebs/50_Jackie_Chan_0012.jpg,non_target,0,0,0,0,0,101,101,104,,,,,,,,,,,,,210.0379137,210.0379137,210.53720199999998,,,,,,3,001,25,Male,2023-04-28_18h16.13.595,face_recognition_ERP_protocol,2022.2.5,59.93450357464808,
Celebs/37_Neil_Patrick_Harris_0010.jpg,non_target,0,0,0,0,0,102,102,72,,,,,,,,,,,,,211.03918099999964,211.03918099999964,211.53834419999976,,,,,,3,001,25,Male,2023-04-28_18h16.13.595,face_recognition_ERP_protocol,2022.2.5,59.93450357464808,
Celebs/57_Jackie_Chan_0008.jpg,non_target,0,0,0,0,0,103,103,117,,,,,,,,,,,,,212.03875679999965,212.03875679999965,212.539491,,,,,,3,001,25,Male,2023-04-28_18h16.13.595,face_recognition_ERP_protocol,2022.2.5,59.93450357464808,
Celebs/19_Emma_Stone_0006.jpg,non_target,0,0,0,0,0,104,104,22,,,,,,,,,,,,,213.0400267,213.0400267,213.54057019999982,,,,,,3,001,25,Male,2023-04-28_18h16.13.595,face_recognition_ERP_protocol,2022.2.5,59.93450357464808,
Celebs/16_Margot_Robbie_0009.jpg,non_target,0,0,0,0,0,105,105,11,,,,,,,,,,,,,214.04290589999982,214.04290589999982,214.5416237999998,,,,,,3,001,25,Male,2023-04-28_18h16.13.595,face_recognition_ERP_protocol,2022.2.5,59.93450357464808,
Celebs/38_Neil_Patrick_Harris_0006.jpg,non_target,0,0,0,0,0,106,106,76,,,,,,,,,,,,,215.04212319999988,215.04212319999988,215.54288439999982,,,,,,3,001,25,Male,2023-04-28_18h16.13.595,face_recognition_ERP_protocol,2022.2.5,59.93450357464808,
Celebs/21_Emma_Stone_0003.jpg,non_target,0,0,0,0,0,107,107,35,,,,,,,,,,,,,216.04310529999975,216.04310529999975,216.54370359999984,,,,,,3,001,25,Male,2023-04-28_18h16.13.595,face_recognition_ERP_protocol,2022.2.5,59.93450357464808,
Celebs/21_Daniel_Radcliffe_0012.jpg,target,0,0,0,0,0,108,108,33,,,,,,,,,,,,,217.03021969999963,217.03021969999963,217.52822579999975,,,,,,3,001,25,Male,2023-04-28_18h16.13.595,face_recognition_ERP_protocol,2022.2.5,59.93450357464808,
Celebs/32_Jim_Parsons_0010.jpg,non_target,0,0,0,0,0,109,109,61,,,,,,,,,,,,,218.0292430999998,218.0292430999998,218.52936950000003,,,,,,3,001,25,Male,2023-04-28_18h16.13.595,face_recognition_ERP_protocol,2022.2.5,59.93450357464808,
Celebs/32_Jim_Parsons_0016.jpg,non_target,0,0,0,0,0,110,110,62,,,,,,,,,,,,,219.02982299999985,219.02982299999985,219.5304274,,,,,,3,001,25,Male,2023-04-28_18h16.13.595,face_recognition_ERP_protocol,2022.2.5,59.93450357464808,
Celebs/55_Jackie_Chan_0008.jpg,non_target,0,0,0,0,0,111,111,115,,,,,,,,,,,,,220.0336583999997,220.0336583999997,220.53150860000005,,,,,,3,001,25,Male,2023-04-28_18h16.13.595,face_recognition_ERP_protocol,2022.2.5,59.93450357464808,
Celebs/17_Margot_Robbie_0014.jpg,non_target,0,0,0,0,0,112,112,16,,,,,,,,,,,,,221.03404779999983,221.03404779999983,221.53258669999968,,,,,,3,001,25,Male,2023-04-28_18h16.13.595,face_recognition_ERP_protocol,2022.2.5,59.93450357464808,
Celebs/28_Scarlett_Johansson_0005.jpg,non_target,0,0,0,0,0,113,113,57,,,,,,,,,,,,,222.03389229999993,222.03389229999993,222.53380849999985,,,,,,3,001,25,Male,2023-04-28_18h16.13.595,face_recognition_ERP_protocol,2022.2.5,59.93450357464808,
Celebs/17_Emma_Watson_0006.jpg,non_target,0,0,0,0,0,114,114,13,,,,,,,,,,,,,223.0353745999996,223.0353745999996,223.53484039999967,,,,,,3,001,25,Male,2023-04-28_18h16.13.595,face_recognition_ERP_protocol,2022.2.5,59.93450357464808,
Celebs/22_Margot_Robbie_0010.jpg,non_target,0,0,0,0,0,115,115,43,,,,,,,,,,,,,224.03792159999966,224.03792159999966,224.53597479999962,,,,,,3,001,25,Male,2023-04-28_18h16.13.595,face_recognition_ERP_protocol,2022.2.5,59.93450357464808,
Celebs/42_Will_Smith_0012.jpg,non_target,0,0,0,0,0,116,116,87,,,,,,,,,,,,,225.03647909999972,225.03647909999972,225.53695619999962,,,,,,3,001,25,Male,2023-04-28_18h16.13.595,face_recognition_ERP_protocol,2022.2.5,59.93450357464808,
Celebs/47_Johnny_Depp_0003.jpg,non_target,0,0,0,0,0,117,117,97,,,,,,,,,,,,,226.0374665999998,226.0374665999998,226.5381285999997,,,,,,3,001,25,Male,2023-04-28_18h16.13.595,face_recognition_ERP_protocol,2022.2.5,59.93450357464808,
Celebs/36_Neil_Patrick_Harris_0010.jpg,non_target,0,0,0,0,0,118,118,71,,,,,,,,,,,,,227.03877059999968,227.03877059999968,227.53950989999976,,,,,,3,001,25,Male,2023-04-28_18h16.13.595,face_recognition_ERP_protocol,2022.2.5,59.93450357464808,
Celebs/37_Neil_Patrick_Harris_0014.jpg,non_target,0,0,0,0,0,119,119,73,,,,,,,,,,,,,228.0417193999997,228.0417193999997,228.54034609999962,,,,,,3,001,25,Male,2023-04-28_18h16.13.595,face_recognition_ERP_protocol,2022.2.5,59.93450357464808,
Celebs/21_Emma_Stone_0002.jpg,non_target,1,0,1,0,0,0,0,34,,,,,,,,,,,,,243.92365840000002,243.92365840000002,244.3574604999999,229.05718350000006,229.05718350000006,space,14.765232000000196,,3,001,25,Male,2023-04-28_18h16.13.595,face_recognition_ERP_protocol,2022.2.5,59.93450357464808,
Celebs/15_Margot_Robbie_0005.jpg,non_target,1,0,1,0,0,1,1,5,,,,,,,,,,,,,244.8579047999997,244.8579047999997,245.35857739999983,,,,,,3,001,25,Male,2023-04-28_18h16.13.595,face_recognition_ERP_protocol,2022.2.5,59.93450357464808,
Celebs/18_Daniel_Radcliffe_0007.jpg,target,1,0,1,0,0,2,2,18,,,,,,,,,,,,,245.85925009999983,245.85925009999983,246.35960839999962,,,,,,3,001,25,Male,2023-04-28_18h16.13.595,face_recognition_ERP_protocol,2022.2.5,59.93450357464808,
Celebs/14_Emma_Watson_0013.jpg,non_target,1,0,1,0,0,3,3,3,,,,,,,,,,,,,246.86004979999962,246.86004979999962,247.34404959999983,,,,,,3,001,25,Male,2023-04-28_18h16.13.595,face_recognition_ERP_protocol,2022.2.5,59.93450357464808,
Celebs/14_Emma_Watson_0005.jpg,non_target,1,0,1,0,0,4,4,1,,,,,,,,,,,,,247.84592179999981,247.84592179999981,248.3451170999997,,,,,,3,001,25,Male,2023-04-28_18h16.13.595,face_recognition_ERP_protocol,2022.2.5,59.93450357464808,
Celebs/57_Jackie_Chan_0010.jpg,non_target,1,0,1,0,0,5,5,118,,,,,,,,,,,,,248.8455224999998,248.8455224999998,249.34618709999995,,,,,,3,001,25,Male,2023-04-28_18h16.13.595,face_recognition_ERP_protocol,2022.2.5,59.93450357464808,
Celebs/38_Jim_Parsons_0003.jpg,non_target,1,0,1,0,0,6,6,75,,,,,,,,,,,,,249.8468082999998,249.8468082999998,250.34730450000006,,,,,,3,001,25,Male,2023-04-28_18h16.13.595,face_recognition_ERP_protocol,2022.2.5,59.93450357464808,
Celebs/50_Johnny_Depp_0004.jpg,non_target,1,0,1,0,0,7,7,106,,,,,,,,,,,,,250.84929539999985,250.84929539999985,251.34838009999976,,,,,,3,001,25,Male,2023-04-28_18h16.13.595,face_recognition_ERP_protocol,2022.2.5,59.93450357464808,
Celebs/39_Neil_Patrick_Harris_0001.jpg,non_target,1,0,1,0,0,8,8,82,,,,,,,,,,,,,251.85057019999977,251.85057019999977,252.3496637999997,,,,,,3,001,25,Male,2023-04-28_18h16.13.595,face_recognition_ERP_protocol,2022.2.5,59.93450357464808,
Celebs/24_Scarlett_Johansson_0001.jpg,non_target,1,0,1,0,0,9,9,51,,,,,,,,,,,,,252.84990900000003,252.84990900000003,253.3507894999998,,,,,,3,001,25,Male,2023-04-28_18h16.13.595,face_recognition_ERP_protocol,2022.2.5,59.93450357464808,
Celebs/43_Will_Smith_0010.jpg,non_target,1,0,1,0,0,10,10,90,,,,,,,,,,,,,253.8519784,253.8519784,254.35183000000006,,,,,,3,001,25,Male,2023-04-28_18h16.13.595,face_recognition_ERP_protocol,2022.2.5,59.93450357464808,
Celebs/45_Will_Smith_0010.jpg,non_target,1,0,1,0,0,11,11,95,,,,,,,,,,,,,254.85302000000001,254.85302000000001,255.35275120000006,,,,,,3,001,25,Male,2023-04-28_18h16.13.595,face_recognition_ERP_protocol,2022.2.5,59.93450357464808,
Celebs/54_Jackie_Chan_0014.jpg,non_target,1,0,1,0,0,12,12,113,,,,,,,,,,,,,255.85331989999986,255.85331989999986,256.3538233999998,,,,,,3,001,25,Male,2023-04-28_18h16.13.595,face_recognition_ERP_protocol,2022.2.5,59.93450357464808,
Celebs/21_Emma_Stone_0003.jpg,non_target,1,0,1,0,0,13,13,35,,,,,,,,,,,,,256.854515,256.854515,257.35498899999993,,,,,,3,001,25,Male,2023-04-28_18h16.13.595,face_recognition_ERP_protocol,2022.2.5,59.93450357464808,
Celebs/37_Neil_Patrick_Harris_0010.jpg,non_target,1,0,1,0,0,14,14,72,,,,,,,,,,,,,257.85572679999996,257.85572679999996,258.35615059999964,,,,,,3,001,25,Male,2023-04-28_18h16.13.595,face_recognition_ERP_protocol,2022.2.5,59.93450357464808,
Celebs/49_Johnny_Depp_0013.jpg,non_target,1,0,1,0,0,15,15,103,,,,,,,,,,,,,258.85765649999985,258.85765649999985,259.35720919999994,,,,,,3,001,25,Male,2023-04-28_18h16.13.595,face_recognition_ERP_protocol,2022.2.5,59.93450357464808,
Celebs/55_Jackie_Chan_0003.jpg,non_target,1,0,1,0,0,16,16,114,,,,,,,,,,,,,259.85784190000004,259.85784190000004,260.3584443999998,,,,,,3,001,25,Male,2023-04-28_18h16.13.595,face_recognition_ERP_protocol,2022.2.5,59.93450357464808,
Celebs/47_Johnny_Depp_0009.jpg,non_target,1,0,1,0,0,17,17,99,,,,,,,,,,,,,260.85892339999964,260.85892339999964,261.35953870000003,,,,,,3,001,25,Male,2023-04-28_18h16.13.595,face_recognition_ERP_protocol,2022.2.5,59.93450357464808,
Celebs/18_Daniel_Radcliffe_0002.jpg,target,1,0,1,0,0,18,18,17,,,,,,,,,,,,,261.8598850999997,261.8598850999997,262.3604971,,,,,,3,001,25,Male,2023-04-28_18h16.13.595,face_recognition_ERP_protocol,2022.2.5,59.93450357464808,
Celebs/16_Margot_Robbie_0009.jpg,non_target,1,0,1,0,0,19,19,11,,,,,,,,,,,,,262.8443299999999,262.8443299999999,263.34490259999984,,,,,,3,001,25,Male,2023-04-28_18h16.13.595,face_recognition_ERP_protocol,2022.2.5,59.93450357464808,
Celebs/54_Jackie_Chan_0001.jpg,non_target,1,0,1,0,0,20,20,112,,,,,,,,,,,,,263.84608320000007,263.84608320000007,264.34618839999985,,,,,,3,001,25,Male,2023-04-28_18h16.13.595,face_recognition_ERP_protocol,2022.2.5,59.93450357464808,
Celebs/50_Johnny_Depp_0008.jpg,non_target,1,0,1,0,0,21,21,107,,,,,,,,,,,,,264.84772079999993,264.84772079999993,265.34728459999997,,,,,,3,001,25,Male,2023-04-28_18h16.13.595,face_recognition_ERP_protocol,2022.2.5,59.93450357464808,
Celebs/47_Johnny_Depp_0004.jpg,non_target,1,0,1,0,0,22,22,98,,,,,,,,,,,,,265.84748420000005,265.84748420000005,266.3483415999999,,,,,,3,001,25,Male,2023-04-28_18h16.13.595,face_recognition_ERP_protocol,2022.2.5,59.93450357464808,
Celebs/14_Emma_Watson_0004.jpg,non_target,1,0,1,0,0,23,23,0,,,,,,,,,,,,,266.8486482999997,266.8486482999997,267.3493771999997,,,,,,3,001,25,Male,2023-04-28_18h16.13.595,face_recognition_ERP_protocol,2022.2.5,59.93450357464808,
Celebs/39_Jim_Parsons_0001.jpg,non_target,1,0,1,0,0,24,24,78,,,,,,,,,,,,,267.8513512999998,267.8513512999998,268.3504777999997,,,,,,3,001,25,Male,2023-04-28_18h16.13.595,face_recognition_ERP_protocol,2022.2.5,59.93450357464808,
Celebs/21_Scarlett_Johansson_0007.jpg,non_target,1,0,1,0,0,25,25,38,,,,,,,,,,,,,268.85137140000006,268.85137140000006,269.35150010000007,,,,,,3,001,25,Male,2023-04-28_18h16.13.595,face_recognition_ERP_protocol,2022.2.5,59.93450357464808,
Celebs/57_Jackie_Chan_0008.jpg,non_target,1,0,1,0,0,26,26,117,,,,,,,,,,,,,269.8530794999997,269.8530794999997,270.3526010999999,,,,,,3,001,25,Male,2023-04-28_18h16.13.595,face_recognition_ERP_protocol,2022.2.5,59.93450357464808,
Celebs/19_Margot_Robbie_0004.jpg,non_target,1,0,1,0,0,27,27,24,,,,,,,,,,,,,270.8532001999997,270.8532001999997,271.35377389999985,,,,,,3,001,25,Male,2023-04-28_18h16.13.595,face_recognition_ERP_protocol,2022.2.5,59.93450357464808,
Celebs/16_Emma_Stone_0012.jpg,non_target,1,0,1,0,0,28,28,9,,,,,,,,,,,,,271.8542094999998,271.8542094999998,272.3547902999999,,,,,,3,001,25,Male,2023-04-28_18h16.13.595,face_recognition_ERP_protocol,2022.2.5,59.93450357464808,
Celebs/51_Jackie_Chan_0006.jpg,non_target,1,0,1,0,0,29,29,110,,,,,,,,,,,,,272.8551849999999,272.8551849999999,273.35587689999966,,,,,,3,001,25,Male,2023-04-28_18h16.13.595,face_recognition_ERP_protocol,2022.2.5,59.93450357464808,
Celebs/55_Jackie_Chan_0015.jpg,non_target,1,0,1,0,0,30,30,116,,,,,,,,,,,,,273.8568723999997,273.8568723999997,274.35700559999987,,,,,,3,001,25,Male,2023-04-28_18h16.13.595,face_recognition_ERP_protocol,2022.2.5,59.93450357464808,
Celebs/17_Margot_Robbie_0012.jpg,non_target,1,0,1,0,0,31,31,15,,,,,,,,,,,,,274.85749989999977,274.85749989999977,275.35798829999976,,,,,,3,001,25,Male,2023-04-28_18h16.13.595,face_recognition_ERP_protocol,2022.2.5,59.93450357464808,
Celebs/48_Johnny_Depp_0003.jpg,non_target,1,0,1,0,0,32,32,101,,,,,,,,,,,,,275.85860189999994,275.85860189999994,276.3592309999999,,,,,,3,001,25,Male,2023-04-28_18h16.13.595,face_recognition_ERP_protocol,2022.2.5,59.93450357464808,
Celebs/21_Daniel_Radcliffe_0009.jpg,target,1,0,1,0,0,33,33,32,,,,,,,,,,,,,276.85953659999996,276.85953659999996,277.36028309999983,,,,,,3,001,25,Male,2023-04-28_18h16.13.595,face_recognition_ERP_protocol,2022.2.5,59.93450357464808,
Celebs/39_Jim_Parsons_0010.jpg,non_target,1,0,1,0,0,34,34,81,,,,,,,,,,,,,277.8441270999997,277.8441270999997,278.3447563,,,,,,3,001,25,Male,2023-04-28_18h16.13.595,face_recognition_ERP_protocol,2022.2.5,59.93450357464808,
Celebs/17_Margot_Robbie_0014.jpg,non_target,1,0,1,0,0,35,35,16,,,,,,,,,,,,,278.84520429999975,278.84520429999975,279.34581279999975,,,,,,3,001,25,Male,2023-04-28_18h16.13.595,face_recognition_ERP_protocol,2022.2.5,59.93450357464808,
Celebs/28_Scarlett_Johansson_0005.jpg,non_target,1,0,1,0,0,36,36,57,,,,,,,,,,,,,279.8463643,279.8463643,280.34682729999986,,,,,,3,001,25,Male,2023-04-28_18h16.13.595,face_recognition_ERP_protocol,2022.2.5,59.93450357464808,
Celebs/27_Scarlett_Johansson_0012.jpg,non_target,1,0,1,0,0,37,37,56,,,,,,,,,,,,,280.84846789999983,280.84846789999983,281.3479416,,,,,,3,001,25,Male,2023-04-28_18h16.13.595,face_recognition_ERP_protocol,2022.2.5,59.93450357464808,
Celebs/50_Jackie_Chan_0014.jpg,non_target,1,0,1,0,0,38,38,105,,,,,,,,,,,,,281.84995690000005,281.84995690000005,282.34899389999964,,,,,,3,001,25,Male,2023-04-28_18h16.13.595,face_recognition_ERP_protocol,2022.2.5,59.93450357464808,
Celebs/14_Emma_Watson_0015.jpg,non_target,1,0,1,0,0,39,39,4,,,,,,,,,,,,,282.8498709999999,282.8498709999999,283.3502383,,,,,,3,001,25,Male,2023-04-28_18h16.13.595,face_recognition_ERP_protocol,2022.2.5,59.93450357464808,
Celebs/32_Jim_Parsons_0018.jpg,non_target,1,0,1,0,0,40,40,63,,,,,,,,,,,,,283.8506545,283.8506545,284.3511426,,,,,,3,001,25,Male,2023-04-28_18h16.13.595,face_recognition_ERP_protocol,2022.2.5,59.93450357464808,
Celebs/20_Emma_Watson_0007.jpg,non_target,1,0,1,0,0,41,41,26,,,,,,,,,,,,,284.85203219999994,284.85203219999994,285.3523495999998,,,,,,3,001,25,Male,2023-04-28_18h16.13.595,face_recognition_ERP_protocol,2022.2.5,59.93450357464808,
Celebs/26_Scarlett_Johansson_0008.jpg,non_target,1,0,1,0,0,42,42,55,,,,,,,,,,,,,285.85320349999984,285.85320349999984,286.3534540999999,,,,,,3,001,25,Male,2023-04-28_18h16.13.595,face_recognition_ERP_protocol,2022.2.5,59.93450357464808,
Celebs/17_Emma_Watson_0006.jpg,non_target,1,0,1,0,0,43,43,13,,,,,,,,,,,,,286.85472709999976,286.85472709999976,287.3545122999999,,,,,,3,001,25,Male,2023-04-28_18h16.13.595,face_recognition_ERP_protocol,2022.2.5,59.93450357464808,
Celebs/48_Johnny_Depp_0005.jpg,non_target,1,0,1,0,0,44,44,102,,,,,,,,,,,,,287.8549756999996,287.8549756999996,288.3556392999999,,,,,,3,001,25,Male,2023-04-28_18h16.13.595,face_recognition_ERP_protocol,2022.2.5,59.93450357464808,
Celebs/19_Margot_Robbie_0001.jpg,non_target,1,0,1,0,0,45,45,23,,,,,,,,,,,,,288.8568439999999,288.8568439999999,289.3567106999999,,,,,,3,001,25,Male,2023-04-28_18h16.13.595,face_recognition_ERP_protocol,2022.2.5,59.93450357464808,
Celebs/24_Daniel_Radcliffe_0017.jpg,target,1,0,1,0,0,46,46,49,,,,,,,,,,,,,289.8586001999997,289.8586001999997,290.3578878999997,,,,,,3,001,25,Male,2023-04-28_18h16.13.595,face_recognition_ERP_protocol,2022.2.5,59.93450357464808,
Celebs/26_Scarlett_Johansson_0003.jpg,non_target,1,0,1,0,0,47,47,54,,,,,,,,,,,,,290.8582704999999,290.8582704999999,291.35892779999995,,,,,,3,001,25,Male,2023-04-28_18h16.13.595,face_recognition_ERP_protocol,2022.2.5,59.93450357464808,
Celebs/20_Emma_Stone_0005.jpg,non_target,1,0,1,0,0,48,48,25,,,,,,,,,,,,,291.8594713999996,291.8594713999996,292.36011069999995,,,,,,3,001,25,Male,2023-04-28_18h16.13.595,face_recognition_ERP_protocol,2022.2.5,59.93450357464808,
Celebs/43_Will_Smith_0007.jpg,non_target,1,0,1,0,0,49,49,89,,,,,,,,,,,,,292.86061519999976,292.86061519999976,293.34450719999995,,,,,,3,001,25,Male,2023-04-28_18h16.13.595,face_recognition_ERP_protocol,2022.2.5,59.93450357464808,
Celebs/39_Jim_Parsons_0008.jpg,non_target,1,0,1,0,0,50,50,80,,,,,,,,,,,,,293.8449284999997,293.8449284999997,294.34564279999995,,,,,,3,001,25,Male,2023-04-28_18h16.13.595,face_recognition_ERP_protocol,2022.2.5,59.93450357464808,
Celebs/37_Will_Smith_0015.jpg,non_target,1,0,1,0,0,51,51,74,,,,,,,,,,,,,294.84601989999965,294.84601989999965,295.34655129999965,,,,,,3,001,25,Male,2023-04-28_18h16.13.595,face_recognition_ERP_protocol,2022.2.5,59.93450357464808,
Celebs/17_Daniel_Radcliffe_0007.jpg,target,1,0,1,0,0,52,52,12,,,,,,,,,,,,,295.8470176999999,295.8470176999999,296.3477039999998,,,,,,3,001,25,Male,2023-04-28_18h16.13.595,face_recognition_ERP_protocol,2022.2.5,59.93450357464808,
Celebs/58_Jackie_Chan_0005.jpg,non_target,1,0,1,0,0,53,53,119,,,,,,,,,,,,,296.8484518999999,296.8484518999999,297.34886430000006,,,,,,3,001,25,Male,2023-04-28_18h16.13.595,face_recognition_ERP_protocol,2022.2.5,59.93450357464808,
Celebs/21_Emma_Watson_0004.jpg,non_target,1,0,1,0,0,54,54,36,,,,,,,,,,,,,297.8508118999998,297.8508118999998,298.3500009999998,,,,,,3,001,25,Male,2023-04-28_18h16.13.595,face_recognition_ERP_protocol,2022.2.5,59.93450357464808,
Celebs/22_Emma_Stone_0013.jpg,non_target,1,0,1,0,0,55,55,39,,,,,,,,,,,,,298.85037869999996,298.85037869999996,299.35109220000004,,,,,,3,001,25,Male,2023-04-28_18h16.13.595,face_recognition_ERP_protocol,2022.2.5,59.93450357464808,
Celebs/18_Emma_Watson_0004.jpg,non_target,1,0,1,0,0,56,56,21,,,,,,,,,,,,,299.85137629999963,299.85137629999963,300.3521520999998,,,,,,3,001,25,Male,2023-04-28_18h16.13.595,face_recognition_ERP_protocol,2022.2.5,59.93450357464808,
Celebs/47_Johnny_Depp_0003.jpg,non_target,1,0,1,0,0,57,57,97,,,,,,,,,,,,,300.85351999999966,300.85351999999966,301.35333139999966,,,,,,3,001,25,Male,2023-04-28_18h16.13.595,face_recognition_ERP_protocol,2022.2.5,59.93450357464808,
Celebs/34_Neil_Patrick_Harris_0007.jpg,non_target,1,0,1,0,0,58,58,67,,,,,,,,,,,,,301.8535514,301.8535514,302.3543784999997,,,,,,3,001,25,Male,2023-04-28_18h16.13.595,face_recognition_ERP_protocol,2022.2.5,59.93450357464808,
Celebs/24_Scarlett_Johansson_0011.jpg,non_target,1,0,1,0,0,59,59,52,,,,,,,,,,,,,302.85479469999973,302.85479469999973,303.3554218999998,,,,,,3,001,25,Male,2023-04-28_18h16.13.595,face_recognition_ERP_protocol,2022.2.5,59.93450357464808,
Celebs/29_Scarlett_Johansson_0010.jpg,non_target,1,0,1,0,0,60,60,58,,,,,,,,,,,,,303.8572371,303.8572371,304.35649680000006,,,,,,3,001,25,Male,2023-04-28_18h16.13.595,face_recognition_ERP_protocol,2022.2.5,59.93450357464808,
Celebs/23_Daniel_Radcliffe_0019.jpg,target,1,0,1,0,0,61,61,47,,,,,,,,,,,,,304.8569239999997,304.8569239999997,305.3575431999998,,,,,,3,001,25,Male,2023-04-28_18h16.13.595,face_recognition_ERP_protocol,2022.2.5,59.93450357464808,
Celebs/36_Jim_Parsons_0011.jpg,non_target,1,0,1,0,0,62,62,69,,,,,,,,,,,,,305.8595938999997,305.8595938999997,306.3587103,,,,,,3,001,25,Male,2023-04-28_18h16.13.595,face_recognition_ERP_protocol,2022.2.5,59.93450357464808,
Celebs/20_Scarlett_Johansson_0011.jpg,non_target,1,0,1,0,0,63,63,29,,,,,,,,,,,,,306.86056529999996,306.86056529999996,307.3596773999998,,,,,,3,001,25,Male,2023-04-28_18h16.13.595,face_recognition_ERP_protocol,2022.2.5,59.93450357464808,
Celebs/34_Neil_Patrick_Harris_0004.jpg,non_target,1,0,1,0,0,64,64,66,,,,,,,,,,,,,307.8607508,307.8607508,308.3440372,,,,,,3,001,25,Male,2023-04-28_18h16.13.595,face_recognition_ERP_protocol,2022.2.5,59.93450357464808,
Celebs/23_Daniel_Radcliffe_0002.jpg,target,1,0,1,0,0,65,65,45,,,,,,,,,,,,,308.84515059999967,308.84515059999967,309.34519329999966,,,,,,3,001,25,Male,2023-04-28_18h16.13.595,face_recognition_ERP_protocol,2022.2.5,59.93450357464808,
Celebs/32_Jim_Parsons_0016.jpg,non_target,1,0,1,0,0,66,66,62,,,,,,,,,,,,,309.84680679999974,309.84680679999974,310.3463511,,,,,,3,001,25,Male,2023-04-28_18h16.13.595,face_recognition_ERP_protocol,2022.2.5,59.93450357464808,
Celebs/42_Will_Smith_0012.jpg,non_target,1,0,1,0,0,67,67,87,,,,,,,,,,,,,310.84684049999987,310.84684049999987,311.3475039,,,,,,3,001,25,Male,2023-04-28_18h16.13.595,face_recognition_ERP_protocol,2022.2.5,59.93450357464808,
Celebs/20_Margot_Robbie_0004.jpg,non_target,1,0,1,0,0,68,68,27,,,,,,,,,,,,,311.8479232999998,311.8479232999998,312.34852490000003,,,,,,3,001,25,Male,2023-04-28_18h16.13.595,face_recognition_ERP_protocol,2022.2.5,59.93450357464808,
Celebs/40_Will_Smith_0012.jpg,non_target,1,0,1,0,0,69,69,86,,,,,,,,,,,,,312.84906079999973,312.84906079999973,313.3496037,,,,,,3,001,25,Male,2023-04-28_18h16.13.595,face_recognition_ERP_protocol,2022.2.5,59.93450357464808,
Celebs/15_Margot_Robbie_0012.jpg,non_target,1,0,1,0,0,70,70,6,,,,,,,,,,,,,313.8517606999999,313.8517606999999,314.35055280000006,,,,,,3,001,25,Male,2023-04-28_18h16.13.595,face_recognition_ERP_protocol,2022.2.5,59.93450357464808,
Celebs/24_Emma_Stone_0015.jpg,non_target,1,0,1,0,0,71,71,50,,,,,,,,,,,,,314.85124210000004,314.85124210000004,315.35176920000004,,,,,,3,001,25,Male,2023-04-28_18h16.13.595,face_recognition_ERP_protocol,2022.2.5,59.93450357464808,
Celebs/25_Scarlett_Johansson_0010.jpg,non_target,1,0,1,0,0,72,72,53,,,,,,,,,,,,,315.8523025999998,315.8523025999998,316.3527899999999,,,,,,3,001,25,Male,2023-04-28_18h16.13.595,face_recognition_ERP_protocol,2022.2.5,59.93450357464808,
Celebs/18_Emma_Stone_0016.jpg,non_target,1,0,1,0,0,73,73,20,,,,,,,,,,,,,316.8533374999997,316.8533374999997,317.35394989999986,,,,,,3,001,25,Male,2023-04-28_18h16.13.595,face_recognition_ERP_protocol,2022.2.5,59.93450357464808,
Celebs/36_Neil_Patrick_Harris_0010.jpg,non_target,1,0,1,0,0,74,74,71,,,,,,,,,,,,,317.85438959999965,317.85438959999965,318.35507919999964,,,,,,3,001,25,Male,2023-04-28_18h16.13.595,face_recognition_ERP_protocol,2022.2.5,59.93450357464808,
Celebs/16_Emma_Stone_0014.jpg,non_target,1,0,1,0,0,75,75,10,,,,,,,,,,,,,318.8555265,318.8555265,319.35618829999976,,,,,,3,001,25,Male,2023-04-28_18h16.13.595,face_recognition_ERP_protocol,2022.2.5,59.93450357464808,
Celebs/40_Jim_Parsons_0015.jpg,non_target,1,0,1,0,0,76,76,85,,,,,,,,,,,,,319.85835129999987,319.85835129999987,320.3572915,,,,,,3,001,25,Male,2023-04-28_18h16.13.595,face_recognition_ERP_protocol,2022.2.5,59.93450357464808,
Celebs/33_Neil_Patrick_Harris_0011.jpg,non_target,1,0,1,0,0,77,77,65,,,,,,,,,,,,,320.85773900000004,320.85773900000004,321.3584108,,,,,,3,001,25,Male,2023-04-28_18h16.13.595,face_recognition_ERP_protocol,2022.2.5,59.93450357464808,
Celebs/22_Emma_Watson_0003.jpg,non_target,1,0,1,0,0,78,78,41,,,,,,,,,,,,,321.8588964999999,321.8588964999999,322.3594371999998,,,,,,3,001,25,Male,2023-04-28_18h16.13.595,face_recognition_ERP_protocol,2022.2.5,59.93450357464808,
Celebs/50_Johnny_Depp_0010.jpg,non_target,1,0,1,0,0,79,79,108,,,,,,,,,,,,,322.860447,322.860447,323.34388979999994,,,,,,3,001,25,Male,2023-04-28_18h16.13.595,face_recognition_ERP_protocol,2022.2.5,59.93450357464808,
Celebs/19_Emma_Stone_0006.jpg,non_target,1,0,1,0,0,80,80,22,,,,,,,,,,,,,323.84459259999994,323.84459259999994,324.3449950999998,,,,,,3,001,25,Male,2023-04-28_18h16.13.595,face_recognition_ERP_protocol,2022.2.5,59.93450357464808,
Celebs/16_Emma_Stone_0008.jpg,non_target,1,0,1,0,0,81,81,7,,,,,,,,,,,,,324.84539700000005,324.84539700000005,325.34598959999994,,,,,,3,001,25,Male,2023-04-28_18h16.13.595,face_recognition_ERP_protocol,2022.2.5,59.93450357464808,
Celebs/37_Neil_Patrick_Harris_0014.jpg,non_target,1,0,1,0,0,82,82,73,,,,,,,,,,,,,325.84658469999977,325.84658469999977,326.3471804999999,,,,,,3,001,25,Male,2023-04-28_18h16.13.595,face_recognition_ERP_protocol,2022.2.5,59.93450357464808,
Celebs/21_Daniel_Radcliffe_0008.jpg,target,1,0,1,0,0,83,83,31,,,,,,,,,,,,,326.8498566999997,326.8498566999997,327.3481727999997,,,,,,3,001,25,Male,2023-04-28_18h16.13.595,face_recognition_ERP_protocol,2022.2.5,59.93450357464808,
Celebs/33_Jim_Parsons_0011.jpg,non_target,1,0,1,0,0,84,84,64,,,,,,,,,,,,,327.8488044999999,327.8488044999999,328.3492744,,,,,,3,001,25,Male,2023-04-28_18h16.13.595,face_recognition_ERP_protocol,2022.2.5,59.93450357464808,
Celebs/23_Emma_Stone_0014.jpg,non_target,1,0,1,0,0,85,85,48,,,,,,,,,,,,,328.85004489999983,328.85004489999983,329.35043270000006,,,,,,3,001,25,Male,2023-04-28_18h16.13.595,face_recognition_ERP_protocol,2022.2.5,59.93450357464808,
Celebs/23_Daniel_Radcliffe_0010.jpg,target,1,0,1,0,0,86,86,46,,,,,,,,,,,,,329.85082620000003,329.85082620000003,330.35142419999966,,,,,,3,001,25,Male,2023-04-28_18h16.13.595,face_recognition_ERP_protocol,2022.2.5,59.93450357464808,
Celebs/50_Jackie_Chan_0012.jpg,non_target,1,0,1,0,0,87,87,104,,,,,,,,,,,,,330.8533816999998,330.8533816999998,331.35258569999996,,,,,,3,001,25,Male,2023-04-28_18h16.13.595,face_recognition_ERP_protocol,2022.2.5,59.93450357464808,
Celebs/36_Neil_Patrick_Harris_0007.jpg,non_target,1,0,1,0,0,88,88,70,,,,,,,,,,,,,331.8530953999998,331.8530953999998,332.35377759999983,,,,,,3,001,25,Male,2023-04-28_18h16.13.595,face_recognition_ERP_protocol,2022.2.5,59.93450357464808,
Celebs/44_Will_Smith_0006.jpg,non_target,1,0,1,0,0,89,89,91,,,,,,,,,,,,,332.8541560999997,332.8541560999997,333.3548172999999,,,,,,3,001,25,Male,2023-04-28_18h16.13.595,face_recognition_ERP_protocol,2022.2.5,59.93450357464808,
Celebs/21_Daniel_Radcliffe_0002.jpg,target,1,0,1,0,0,90,90,30,,,,,,,,,,,,,333.85522869999977,333.85522869999977,334.3558843999999,,,,,,3,001,25,Male,2023-04-28_18h16.13.595,face_recognition_ERP_protocol,2022.2.5,59.93450357464808,
Celebs/38_Neil_Patrick_Harris_0006.jpg,non_target,1,0,1,0,0,91,91,76,,,,,,,,,,,,,334.85731699999997,334.85731699999997,335.35700229999975,,,,,,3,001,25,Male,2023-04-28_18h16.13.595,face_recognition_ERP_protocol,2022.2.5,59.93450357464808,
Celebs/43_Will_Smith_0006.jpg,non_target,1,0,1,0,0,92,92,88,,,,,,,,,,,,,335.8573930999996,335.8573930999996,336.3581130999996,,,,,,3,001,25,Male,2023-04-28_18h16.13.595,face_recognition_ERP_protocol,2022.2.5,59.93450357464808,
Celebs/22_Margot_Robbie_0010.jpg,non_target,1,0,1,0,0,93,93,43,,,,,,,,,,,,,336.85864619999984,336.85864619999984,337.35915959999966,,,,,,3,001,25,Male,2023-04-28_18h16.13.595,face_recognition_ERP_protocol,2022.2.5,59.93450357464808,
Celebs/45_Will_Smith_0014.jpg,non_target,1,0,1,0,0,94,94,96,,,,,,,,,,,,,337.86130839999987,337.86130839999987,338.36035879999963,,,,,,3,001,25,Male,2023-04-28_18h16.13.595,face_recognition_ERP_protocol,2022.2.5,59.93450357464808,
Celebs/14_Emma_Watson_0008.jpg,non_target,1,0,1,0,0,95,95,2,,,,,,,,,,,,,338.84490609999966,338.84490609999966,339.3446380999999,,,,,,3,001,25,Male,2023-04-28_18h16.13.595,face_recognition_ERP_protocol,2022.2.5,59.93450357464808,
Celebs/39_Jim_Parsons_0004.jpg,non_target,1,0,1,0,0,96,96,79,,,,,,,,,,,,,339.8450853999998,339.8450853999998,340.34580099999994,,,,,,3,001,25,Male,2023-04-28_18h16.13.595,face_recognition_ERP_protocol,2022.2.5,59.93450357464808,
Celebs/44_Will_Smith_0007.jpg,non_target,1,0,1,0,0,97,97,92,,,,,,,,,,,,,340.84628539999994,340.84628539999994,341.34699139999975,,,,,,3,001,25,Male,2023-04-28_18h16.13.595,face_recognition_ERP_protocol,2022.2.5,59.93450357464808,
Celebs/16_Emma_Stone_0010.jpg,non_target,1,0,1,0,0,98,98,8,,,,,,,,,,,,,341.8472575999999,341.8472575999999,342.3479801999997,,,,,,3,001,25,Male,2023-04-28_18h16.13.595,face_recognition_ERP_protocol,2022.2.5,59.93450357464808,
Celebs/29_Scarlett_Johansson_0016.jpg,non_target,1,0,1,0,0,99,99,59,,,,,,,,,,,,,342.84859719999986,342.84859719999986,343.34906939999973,,,,,,3,001,25,Male,2023-04-28_18h16.13.595,face_recognition_ERP_protocol,2022.2.5,59.93450357464808,
Celebs/38_Will_Smith_0013.jpg,non_target,1,0,1,0,0,100,100,77,,,,,,,,,,,,,343.84954990000006,343.84954990000006,344.350199,,,,,,3,001,25,Male,2023-04-28_18h16.13.595,face_recognition_ERP_protocol,2022.2.5,59.93450357464808,
Celebs/20_Margot_Robbie_0006.jpg,non_target,1,0,1,0,0,101,101,28,,,,,,,,,,,,,344.8509747999997,344.8509747999997,345.3512333999997,,,,,,3,001,25,Male,2023-04-28_18h16.13.595,face_recognition_ERP_protocol,2022.2.5,59.93450357464808,
Celebs/21_Daniel_Radcliffe_0012.jpg,target,1,0,1,0,0,102,102,33,,,,,,,,,,,,,345.85173319999967,345.85173319999967,346.3523587999998,,,,,,3,001,25,Male,2023-04-28_18h16.13.595,face_recognition_ERP_protocol,2022.2.5,59.93450357464808,
Celebs/32_Jim_Parsons_0010.jpg,non_target,1,0,1,0,0,103,103,61,,,,,,,,,,,,,346.8536710999997,346.8536710999997,347.3534129999998,,,,,,3,001,25,Male,2023-04-28_18h16.13.595,face_recognition_ERP_protocol,2022.2.5,59.93450357464808,
Celebs/44_Will_Smith_0015.jpg,non_target,1,0,1,0,0,104,104,93,,,,,,,,,,,,,347.8542881999997,347.8542881999997,348.3545756999997,,,,,,3,001,25,Male,2023-04-28_18h16.13.595,face_recognition_ERP_protocol,2022.2.5,59.93450357464808,
Celebs/55_Jackie_Chan_0008.jpg,non_target,1,0,1,0,0,105,105,115,,,,,,,,,,,,,348.8561952,348.8561952,349.3556070999998,,,,,,3,001,25,Male,2023-04-28_18h16.13.595,face_recognition_ERP_protocol,2022.2.5,59.93450357464808,
Celebs/18_Daniel_Radcliffe_0008.jpg,target,1,0,1,0,0,106,106,19,,,,,,,,,,,,,349.8560623999997,349.8560623999997,350.35673689999976,,,,,,3,001,25,Male,2023-04-28_18h16.13.595,face_recognition_ERP_protocol,2022.2.5,59.93450357464808,
Celebs/22_Emma_Watson_0001.jpg,non_target,1,0,1,0,0,107,107,40,,,,,,,,,,,,,350.8573627999999,350.8573627999999,351.35771069999964,,,,,,3,001,25,Male,2023-04-28_18h16.13.595,face_recognition_ERP_protocol,2022.2.5,59.93450357464808,
Celebs/35_Neil_Patrick_Harris_0009.jpg,non_target,1,0,1,0,0,108,108,68,,,,,,,,,,,,,351.85869539999976,351.85869539999976,352.3589044999999,,,,,,3,001,25,Male,2023-04-28_18h16.13.595,face_recognition_ERP_protocol,2022.2.5,59.93450357464808,
Celebs/22_Emma_Watson_0010.jpg,non_target,1,0,1,0,0,109,109,42,,,,,,,,,,,,,352.8593415999999,352.8593415999999,353.3599215999998,,,,,,3,001,25,Male,2023-04-28_18h16.13.595,face_recognition_ERP_protocol,2022.2.5,59.93450357464808,
Celebs/31_Neil_Patrick_Harris_0008.jpg,non_target,1,0,1,0,0,110,110,60,,,,,,,,,,,,,353.84441819999984,353.84441819999984,354.3443164999999,,,,,,3,001,25,Male,2023-04-28_18h16.13.595,face_recognition_ERP_protocol,2022.2.5,59.93450357464808,
Celebs/52_Jackie_Chan_0002.jpg,non_target,1,0,1,0,0,111,111,111,,,,,,,,,,,,,354.8449808999999,354.8449808999999,355.34540019999986,,,,,,3,001,25,Male,2023-04-28_18h16.13.595,face_recognition_ERP_protocol,2022.2.5,59.93450357464808,
Celebs/17_Margot_Robbie_0006.jpg,non_target,1,0,1,0,0,112,112,14,,,,,,,,,,,,,355.84584989999985,355.84584989999985,356.34660299999996,,,,,,3,001,25,Male,2023-04-28_18h16.13.595,face_recognition_ERP_protocol,2022.2.5,59.93450357464808,
Celebs/45_Johnny_Depp_0003.jpg,non_target,1,0,1,0,0,113,113,94,,,,,,,,,,,,,356.8480258999998,356.8480258999998,357.3475945,,,,,,3,001,25,Male,2023-04-28_18h16.13.595,face_recognition_ERP_protocol,2022.2.5,59.93450357464808,
Celebs/21_Margot_Robbie_0003.jpg,non_target,1,0,1,0,0,114,114,37,,,,,,,,,,,,,357.85102370000004,357.85102370000004,358.34870669999964,,,,,,3,001,25,Male,2023-04-28_18h16.13.595,face_recognition_ERP_protocol,2022.2.5,59.93450357464808,
Celebs/22_Scarlett_Johansson_0005.jpg,non_target,1,0,1,0,0,115,115,44,,,,,,,,,,,,,358.8505892999997,358.8505892999997,359.3499207,,,,,,3,001,25,Male,2023-04-28_18h16.13.595,face_recognition_ERP_protocol,2022.2.5,59.93450357464808,
Celebs/48_Johnny_Depp_0001.jpg,non_target,1,0,1,0,0,116,116,100,,,,,,,,,,,,,359.8503234,359.8503234,360.3508942999997,,,,,,3,001,25,Male,2023-04-28_18h16.13.595,face_recognition_ERP_protocol,2022.2.5,59.93450357464808,
Celebs/50_Johnny_Depp_0018.jpg,non_target,1,0,1,0,0,117,117,109,,,,,,,,,,,,,360.8513923999999,360.8513923999999,361.3521292999999,,,,,,3,001,25,Male,2023-04-28_18h16.13.595,face_recognition_ERP_protocol,2022.2.5,59.93450357464808,
Celebs/39_Neil_Patrick_Harris_0010.jpg,non_target,1,0,1,0,0,118,118,83,,,,,,,,,,,,,361.8535380999997,361.8535380999997,362.3531223,,,,,,3,001,25,Male,2023-04-28_18h16.13.595,face_recognition_ERP_protocol,2022.2.5,59.93450357464808,
Celebs/40_Jim_Parsons_0004.jpg,non_target,1,0,1,0,0,119,119,84,,,,,,,,,,,,,362.8536193,362.8536193,363.3542749999997,,,,,,3,001,25,Male,2023-04-28_18h16.13.595,face_recognition_ERP_protocol,2022.2.5,59.93450357464808,
Celebs/50_Johnny_Depp_0008.jpg,non_target,2,0,2,0,0,0,0,107,,,,,,,,,,,,,379.95541209999965,379.95541209999965,380.42280519999986,363.85483129999966,363.85483129999966,space,16.02902660000018,,3,001,25,Male,2023-04-28_18h16.13.595,face_recognition_ERP_protocol,2022.2.5,59.93450357464808,
Celebs/51_Jackie_Chan_0006.jpg,non_target,2,0,2,0,0,1,1,110,,,,,,,,,,,,,380.9241714,380.9241714,381.4238608999999,,,,,,3,001,25,Male,2023-04-28_18h16.13.595,face_recognition_ERP_protocol,2022.2.5,59.93450357464808,
Celebs/58_Jackie_Chan_0005.jpg,non_target,2,0,2,0,0,2,2,119,,,,,,,,,,,,,381.9076296999997,381.9076296999997,382.4082294,,,,,,3,001,25,Male,2023-04-28_18h16.13.595,face_recognition_ERP_protocol,2022.2.5,59.93450357464808,
Celebs/22_Scarlett_Johansson_0005.jpg,non_target,2,0,2,0,0,3,3,44,,,,,,,,,,,,,382.9087105999997,382.9087105999997,383.40929819999974,,,,,,3,001,25,Male,2023-04-28_18h16.13.595,face_recognition_ERP_protocol,2022.2.5,59.93450357464808,
Celebs/36_Neil_Patrick_Harris_0010.jpg,non_target,2,0,2,0,0,4,4,71,,,,,,,,,,,,,383.9124638999997,383.9124638999997,384.4106711999998,,,,,,3,001,25,Male,2023-04-28_18h16.13.595,face_recognition_ERP_protocol,2022.2.5,59.93450357464808,
Celebs/50_Johnny_Depp_0004.jpg,non_target,2,0,2,0,0,5,5,106,,,,,,,,,,,,,384.91154149999966,384.91154149999966,385.41162669999994,,,,,,3,001,25,Male,2023-04-28_18h16.13.595,face_recognition_ERP_protocol,2022.2.5,59.93450357464808,
Celebs/18_Daniel_Radcliffe_0007.jpg,target,2,0,2,0,0,6,6,18,,,,,,,,,,,,,385.9125518999999,385.9125518999999,386.41279729999997,,,,,,3,001,25,Male,2023-04-28_18h16.13.595,face_recognition_ERP_protocol,2022.2.5,59.93450357464808,
Celebs/39_Jim_Parsons_0010.jpg,non_target,2,0,2,0,0,7,7,81,,,,,,,,,,,,,386.91344379999964,386.91344379999964,387.4138361999999,,,,,,3,001,25,Male,2023-04-28_18h16.13.595,face_recognition_ERP_protocol,2022.2.5,59.93450357464808,
Celebs/24_Daniel_Radcliffe_0017.jpg,target,2,0,2,0,0,8,8,49,,,,,,,,,,,,,387.914229,387.914229,388.4149321,,,,,,3,001,25,Male,2023-04-28_18h16.13.595,face_recognition_ERP_protocol,2022.2.5,59.93450357464808,
Celebs/39_Jim_Parsons_0001.jpg,non_target,2,0,2,0,0,9,9,78,,,,,,,,,,,,,388.9154473999997,388.9154473999997,389.41601149999997,,,,,,3,001,25,Male,2023-04-28_18h16.13.595,face_recognition_ERP_protocol,2022.2.5,59.93450357464808,
Celebs/24_Scarlett_Johansson_0011.jpg,non_target,2,0,2,0,0,10,10,52,,,,,,,,,,,,,389.91740219999974,389.91740219999974,390.4171127999998,,,,,,3,001,25,Male,2023-04-28_18h16.13.595,face_recognition_ERP_protocol,2022.2.5,59.93450357464808,
Celebs/49_Johnny_Depp_0013.jpg,non_target,2,0,2,0,0,11,11,103,,,,,,,,,,,,,390.91777269999966,390.91777269999966,391.41819859999987,,,,,,3,001,25,Male,2023-04-28_18h16.13.595,face_recognition_ERP_protocol,2022.2.5,59.93450357464808,
Celebs/29_Scarlett_Johansson_0016.jpg,non_target,2,0,2,0,0,12,12,59,,,,,,,,,,,,,391.9192042999998,391.9192042999998,392.4192158999999,,,,,,3,001,25,Male,2023-04-28_18h16.13.595,face_recognition_ERP_protocol,2022.2.5,59.93450357464808,
Celebs/52_Jackie_Chan_0002.jpg,non_target,2,0,2,0,0,13,13,111,,,,,,,,,,,,,392.92091409999966,392.92091409999966,393.42042489999994,,,,,,3,001,25,Male,2023-04-28_18h16.13.595,face_recognition_ERP_protocol,2022.2.5,59.93450357464808,
Celebs/21_Daniel_Radcliffe_0008.jpg,target,2,0,2,0,0,14,14,31,,,,,,,,,,,,,393.9208461999997,393.9208461999997,394.4215887999999,,,,,,3,001,25,Male,2023-04-28_18h16.13.595,face_recognition_ERP_protocol,2022.2.5,59.93450357464808,
Celebs/23_Daniel_Radcliffe_0019.jpg,target,2,0,2,0,0,15,15,47,,,,,,,,,,,,,394.92197699999997,394.92197699999997,395.4226494999998,,,,,,3,001,25,Male,2023-04-28_18h16.13.595,face_recognition_ERP_protocol,2022.2.5,59.93450357464808,
Celebs/16_Emma_Stone_0008.jpg,non_target,2,0,2,0,0,16,16,7,,,,,,,,,,,,,395.9230250999999,395.9230250999999,396.4237788999999,,,,,,3,001,25,Male,2023-04-28_18h16.13.595,face_recognition_ERP_protocol,2022.2.5,59.93450357464808,
Celebs/38_Jim_Parsons_0003.jpg,non_target,2,0,2,0,0,17,17,75,,,,,,,,,,,,,396.9075094,396.9075094,397.4082664999996,,,,,,3,001,25,Male,2023-04-28_18h16.13.595,face_recognition_ERP_protocol,2022.2.5,59.93450357464808,
Celebs/37_Neil_Patrick_Harris_0014.jpg,non_target,2,0,2,0,0,18,18,73,,,,,,,,,,,,,397.90870819999964,397.90870819999964,398.4090991999997,,,,,,3,001,25,Male,2023-04-28_18h16.13.595,face_recognition_ERP_protocol,2022.2.5,59.93450357464808,
Celebs/16_Margot_Robbie_0009.jpg,non_target,2,0,2,0,0,19,19,11,,,,,,,,,,,,,398.90956559999995,398.90956559999995,399.41033219999963,,,,,,3,001,25,Male,2023-04-28_18h16.13.595,face_recognition_ERP_protocol,2022.2.5,59.93450357464808,
Celebs/29_Scarlett_Johansson_0010.jpg,non_target,2,0,2,0,0,20,20,58,,,,,,,,,,,,,399.9109251,399.9109251,400.41147950000004,,,,,,3,001,25,Male,2023-04-28_18h16.13.595,face_recognition_ERP_protocol,2022.2.5,59.93450357464808,
Celebs/39_Jim_Parsons_0004.jpg,non_target,2,0,2,0,0,21,21,79,,,,,,,,,,,,,400.91187939999963,400.91187939999963,401.4123903999998,,,,,,3,001,25,Male,2023-04-28_18h16.13.595,face_recognition_ERP_protocol,2022.2.5,59.93450357464808,
Celebs/39_Neil_Patrick_Harris_0001.jpg,non_target,2,0,2,0,0,22,22,82,,,,,,,,,,,,,401.91297889999987,401.91297889999987,402.4135492999999,,,,,,3,001,25,Male,2023-04-28_18h16.13.595,face_recognition_ERP_protocol,2022.2.5,59.93450357464808,
Celebs/38_Will_Smith_0013.jpg,non_target,2,0,2,0,0,23,23,77,,,,,,,,,,,,,402.9139937,402.9139937,403.4147014,,,,,,3,001,25,Male,2023-04-28_18h16.13.595,face_recognition_ERP_protocol,2022.2.5,59.93450357464808,
Celebs/50_Jackie_Chan_0012.jpg,non_target,2,0,2,0,0,24,24,104,,,,,,,,,,,,,403.91521650000004,403.91521650000004,404.41589339999973,,,,,,3,001,25,Male,2023-04-28_18h16.13.595,face_recognition_ERP_protocol,2022.2.5,59.93450357464808,
Celebs/26_Scarlett_Johansson_0008.jpg,non_target,2,0,2,0,0,25,25,55,,,,,,,,,,,,,404.9161442999998,404.9161442999998,405.4169131999997,,,,,,3,001,25,Male,2023-04-28_18h16.13.595,face_recognition_ERP_protocol,2022.2.5,59.93450357464808,
Celebs/47_Johnny_Depp_0009.jpg,non_target,2,0,2,0,0,26,26,99,,,,,,,,,,,,,405.91747429999987,405.91747429999987,406.41804279999997,,,,,,3,001,25,Male,2023-04-28_18h16.13.595,face_recognition_ERP_protocol,2022.2.5,59.93450357464808,
Celebs/18_Emma_Watson_0004.jpg,non_target,2,0,2,0,0,27,27,21,,,,,,,,,,,,,406.91893759999994,406.91893759999994,407.4189997999997,,,,,,3,001,25,Male,2023-04-28_18h16.13.595,face_recognition_ERP_protocol,2022.2.5,59.93450357464808,
Celebs/44_Will_Smith_0006.jpg,non_target,2,0,2,0,0,28,28,91,,,,,,,,,,,,,407.91985929999964,407.91985929999964,408.4202246,,,,,,3,001,25,Male,2023-04-28_18h16.13.595,face_recognition_ERP_protocol,2022.2.5,59.93450357464808,
Celebs/21_Daniel_Radcliffe_0012.jpg,target,2,0,2,0,0,29,29,33,,,,,,,,,,,,,408.9206297999999,408.9206297999999,409.4213872999999,,,,,,3,001,25,Male,2023-04-28_18h16.13.595,face_recognition_ERP_protocol,2022.2.5,59.93450357464808,
Celebs/24_Scarlett_Johansson_0001.jpg,non_target,2,0,2,0,0,30,30,51,,,,,,,,,,,,,409.9218173999998,409.9218173999998,410.42222979999997,,,,,,3,001,25,Male,2023-04-28_18h16.13.595,face_recognition_ERP_protocol,2022.2.5,59.93450357464808,
Celebs/20_Emma_Stone_0005.jpg,non_target,2,0,2,0,0,31,31,25,,,,,,,,,,,,,410.9227211999996,410.9227211999996,411.42355009999983,,,,,,3,001,25,Male,2023-04-28_18h16.13.595,face_recognition_ERP_protocol,2022.2.5,59.93450357464808,
Celebs/54_Jackie_Chan_0014.jpg,non_target,2,0,2,0,0,32,32,113,,,,,,,,,,,,,411.92386099999976,411.92386099999976,412.4078679999998,,,,,,3,001,25,Male,2023-04-28_18h16.13.595,face_recognition_ERP_protocol,2022.2.5,59.93450357464808,
Celebs/22_Emma_Watson_0001.jpg,non_target,2,0,2,0,0,33,33,40,,,,,,,,,,,,,412.90823299999965,412.90823299999965,413.4089749,,,,,,3,001,25,Male,2023-04-28_18h16.13.595,face_recognition_ERP_protocol,2022.2.5,59.93450357464808,
Celebs/48_Johnny_Depp_0005.jpg,non_target,2,0,2,0,0,34,34,102,,,,,,,,,,,,,413.90986559999965,413.90986559999965,414.4102014,,,,,,3,001,25,Male,2023-04-28_18h16.13.595,face_recognition_ERP_protocol,2022.2.5,59.93450357464808,
Celebs/20_Margot_Robbie_0004.jpg,non_target,2,0,2,0,0,35,35,27,,,,,,,,,,,,,414.9104474999999,414.9104474999999,415.41114419999985,,,,,,3,001,25,Male,2023-04-28_18h16.13.595,face_recognition_ERP_protocol,2022.2.5,59.93450357464808,
Celebs/18_Daniel_Radcliffe_0002.jpg,target,2,0,2,0,0,36,36,17,,,,,,,,,,,,,415.91156739999997,415.91156739999997,416.41228950000004,,,,,,3,001,25,Male,2023-04-28_18h16.13.595,face_recognition_ERP_protocol,2022.2.5,59.93450357464808,
Celebs/23_Daniel_Radcliffe_0010.jpg,target,2,0,2,0,0,37,37,46,,,,,,,,,,,,,416.9127051999999,416.9127051999999,417.4134202,,,,,,3,001,25,Male,2023-04-28_18h16.13.595,face_recognition_ERP_protocol,2022.2.5,59.93450357464808,
Celebs/20_Scarlett_Johansson_0011.jpg,non_target,2,0,2,0,0,38,38,29,,,,,,,,,,,,,417.9137192999997,417.9137192999997,418.4142858,,,,,,3,001,25,Male,2023-04-28_18h16.13.595,face_recognition_ERP_protocol,2022.2.5,59.93450357464808,
Celebs/15_Margot_Robbie_0005.jpg,non_target,2,0,2,0,0,39,39,5,,,,,,,,,,,,,418.91489079999974,418.91489079999974,419.4155179999998,,,,,,3,001,25,Male,2023-04-28_18h16.13.595,face_recognition_ERP_protocol,2022.2.5,59.93450357464808,
Celebs/33_Jim_Parsons_0011.jpg,non_target,2,0,2,0,0,40,40,64,,,,,,,,,,,,,419.9159313,419.9159313,420.4165501999996,,,,,,3,001,25,Male,2023-04-28_18h16.13.595,face_recognition_ERP_protocol,2022.2.5,59.93450357464808,
Celebs/21_Emma_Stone_0002.jpg,non_target,2,0,2,0,0,41,41,34,,,,,,,,,,,,,420.91704849999996,420.91704849999996,421.41766039999993,,,,,,3,001,25,Male,2023-04-28_18h16.13.595,face_recognition_ERP_protocol,2022.2.5,59.93450357464808,
Celebs/28_Scarlett_Johansson_0005.jpg,non_target,2,0,2,0,0,42,42,57,,,,,,,,,,,,,421.91822120000006,421.91822120000006,422.4186800999996,,,,,,3,001,25,Male,2023-04-28_18h16.13.595,face_recognition_ERP_protocol,2022.2.5,59.93450357464808,
Celebs/55_Jackie_Chan_0003.jpg,non_target,2,0,2,0,0,43,43,114,,,,,,,,,,,,,422.91920489999984,422.91920489999984,423.42001249999976,,,,,,3,001,25,Male,2023-04-28_18h16.13.595,face_recognition_ERP_protocol,2022.2.5,59.93450357464808,
Celebs/17_Margot_Robbie_0006.jpg,non_target,2,0,2,0,0,44,44,14,,,,,,,,,,,,,423.9205127,423.9205127,424.421022,,,,,,3,001,25,Male,2023-04-28_18h16.13.595,face_recognition_ERP_protocol,2022.2.5,59.93450357464808,
Celebs/27_Scarlett_Johansson_0012.jpg,non_target,2,0,2,0,0,45,45,56,,,,,,,,,,,,,424.9216158999998,424.9216158999998,425.4221075999999,,,,,,3,001,25,Male,2023-04-28_18h16.13.595,face_recognition_ERP_protocol,2022.2.5,59.93450357464808,
Celebs/50_Johnny_Depp_0010.jpg,non_target,2,0,2,0,0,46,46,108,,,,,,,,,,,,,425.92263049999974,425.92263049999974,426.42302689999997,,,,,,3,001,25,Male,2023-04-28_18h16.13.595,face_recognition_ERP_protocol,2022.2.5,59.93450357464808,
Celebs/17_Margot_Robbie_0014.jpg,non_target,2,0,2,0,0,47,47,16,,,,,,,,,,,,,426.9235733999999,426.9235733999999,427.4075220999998,,,,,,3,001,25,Male,2023-04-28_18h16.13.595,face_recognition_ERP_protocol,2022.2.5,59.93450357464808,
Celebs/50_Johnny_Depp_0018.jpg,non_target,2,0,2,0,0,48,48,109,,,,,,,,,,,,,427.9079905999997,427.9079905999997,428.4087233,,,,,,3,001,25,Male,2023-04-28_18h16.13.595,face_recognition_ERP_protocol,2022.2.5,59.93450357464808,
Celebs/16_Emma_Stone_0014.jpg,non_target,2,0,2,0,0,49,49,10,,,,,,,,,,,,,428.9091318999999,428.9091318999999,429.4096792999999,,,,,,3,001,25,Male,2023-04-28_18h16.13.595,face_recognition_ERP_protocol,2022.2.5,59.93450357464808,
Celebs/31_Neil_Patrick_Harris_0008.jpg,non_target,2,0,2,0,0,50,50,60,,,,,,,,,,,,,429.9104038999999,429.9104038999999,430.4109064999998,,,,,,3,001,25,Male,2023-04-28_18h16.13.595,face_recognition_ERP_protocol,2022.2.5,59.93450357464808,
Celebs/44_Will_Smith_0007.jpg,non_target,2,0,2,0,0,51,51,92,,,,,,,,,,,,,430.91220079999994,430.91220079999994,431.4119136999998,,,,,,3,001,25,Male,2023-04-28_18h16.13.595,face_recognition_ERP_protocol,2022.2.5,59.93450357464808,
Celebs/17_Margot_Robbie_0012.jpg,non_target,2,0,2,0,0,52,52,15,,,,,,,,,,,,,431.91256639999983,431.91256639999983,432.41319239999984,,,,,,3,001,25,Male,2023-04-28_18h16.13.595,face_recognition_ERP_protocol,2022.2.5,59.93450357464808,
Celebs/42_Will_Smith_0012.jpg,non_target,2,0,2,0,0,53,53,87,,,,,,,,,,,,,432.9134670999997,432.9134670999997,433.41401819999965,,,,,,3,001,25,Male,2023-04-28_18h16.13.595,face_recognition_ERP_protocol,2022.2.5,59.93450357464808,
Celebs/37_Will_Smith_0015.jpg,non_target,2,0,2,0,0,54,54,74,,,,,,,,,,,,,433.9145988,433.9145988,434.41524619999973,,,,,,3,001,25,Male,2023-04-28_18h16.13.595,face_recognition_ERP_protocol,2022.2.5,59.93450357464808,
Celebs/55_Jackie_Chan_0015.jpg,non_target,2,0,2,0,0,55,55,116,,,,,,,,,,,,,434.91585050000003,434.91585050000003,435.41620809999995,,,,,,3,001,25,Male,2023-04-28_18h16.13.595,face_recognition_ERP_protocol,2022.2.5,59.93450357464808,
Celebs/47_Johnny_Depp_0004.jpg,non_target,2,0,2,0,0,56,56,98,,,,,,,,,,,,,435.91682349999974,435.91682349999974,436.41741249999995,,,,,,3,001,25,Male,2023-04-28_18h16.13.595,face_recognition_ERP_protocol,2022.2.5,59.93450357464808,
Celebs/17_Emma_Watson_0006.jpg,non_target,2,0,2,0,0,57,57,13,,,,,,,,,,,,,436.91847949999965,436.91847949999965,437.41849539999976,,,,,,3,001,25,Male,2023-04-28_18h16.13.595,face_recognition_ERP_protocol,2022.2.5,59.93450357464808,
Celebs/43_Will_Smith_0010.jpg,non_target,2,0,2,0,0,58,58,90,,,,,,,,,,,,,437.91899269999976,437.91899269999976,438.41968789999964,,,,,,3,001,25,Male,2023-04-28_18h16.13.595,face_recognition_ERP_protocol,2022.2.5,59.93450357464808,
Celebs/19_Margot_Robbie_0001.jpg,non_target,2,0,2,0,0,59,59,23,,,,,,,,,,,,,438.9200615,438.9200615,439.4205941,,,,,,3,001,25,Male,2023-04-28_18h16.13.595,face_recognition_ERP_protocol,2022.2.5,59.93450357464808,
Celebs/45_Will_Smith_0010.jpg,non_target,2,0,2,0,0,60,60,95,,,,,,,,,,,,,439.92115269999977,439.92115269999977,440.42190679999976,,,,,,3,001,25,Male,2023-04-28_18h16.13.595,face_recognition_ERP_protocol,2022.2.5,59.93450357464808,
Celebs/14_Emma_Watson_0008.jpg,non_target,2,0,2,0,0,61,61,2,,,,,,,,,,,,,440.9225818,440.9225818,441.4230577999997,,,,,,3,001,25,Male,2023-04-28_18h16.13.595,face_recognition_ERP_protocol,2022.2.5,59.93450357464808,
Celebs/39_Neil_Patrick_Harris_0010.jpg,non_target,2,0,2,0,0,62,62,83,,,,,,,,,,,,,441.92348249999986,441.92348249999986,442.4239478999998,,,,,,3,001,25,Male,2023-04-28_18h16.13.595,face_recognition_ERP_protocol,2022.2.5,59.93450357464808,
Celebs/38_Neil_Patrick_Harris_0006.jpg,non_target,2,0,2,0,0,63,63,76,,,,,,,,,,,,,442.9077392999998,442.9077392999998,443.4082983999997,,,,,,3,001,25,Male,2023-04-28_18h16.13.595,face_recognition_ERP_protocol,2022.2.5,59.93450357464808,
Celebs/43_Will_Smith_0007.jpg,non_target,2,0,2,0,0,64,64,89,,,,,,,,,,,,,443.90892289999965,443.90892289999965,444.4094968999998,,,,,,3,001,25,Male,2023-04-28_18h16.13.595,face_recognition_ERP_protocol,2022.2.5,59.93450357464808,
Celebs/21_Margot_Robbie_0003.jpg,non_target,2,0,2,0,0,65,65,37,,,,,,,,,,,,,444.90998179999997,444.90998179999997,445.41051930000003,,,,,,3,001,25,Male,2023-04-28_18h16.13.595,face_recognition_ERP_protocol,2022.2.5,59.93450357464808,
Celebs/34_Neil_Patrick_Harris_0004.jpg,non_target,2,0,2,0,0,66,66,66,,,,,,,,,,,,,445.91133139999965,445.91133139999965,446.4116590999997,,,,,,3,001,25,Male,2023-04-28_18h16.13.595,face_recognition_ERP_protocol,2022.2.5,59.93450357464808,
Celebs/14_Emma_Watson_0004.jpg,non_target,2,0,2,0,0,67,67,0,,,,,,,,,,,,,446.9120697999997,446.9120697999997,447.4127518,,,,,,3,001,25,Male,2023-04-28_18h16.13.595,face_recognition_ERP_protocol,2022.2.5,59.93450357464808,
Celebs/22_Emma_Stone_0013.jpg,non_target,2,0,2,0,0,68,68,39,,,,,,,,,,,,,447.9133127,447.9133127,448.41379659999984,,,,,,3,001,25,Male,2023-04-28_18h16.13.595,face_recognition_ERP_protocol,2022.2.5,59.93450357464808,
Celebs/15_Margot_Robbie_0012.jpg,non_target,2,0,2,0,0,69,69,6,,,,,,,,,,,,,448.91519629999993,448.91519629999993,449.4149878999997,,,,,,3,001,25,Male,2023-04-28_18h16.13.595,face_recognition_ERP_protocol,2022.2.5,59.93450357464808,
Celebs/32_Jim_Parsons_0010.jpg,non_target,2,0,2,0,0,70,70,61,,,,,,,,,,,,,449.91530809999995,449.91530809999995,450.4161383999999,,,,,,3,001,25,Male,2023-04-28_18h16.13.595,face_recognition_ERP_protocol,2022.2.5,59.93450357464808,
Celebs/21_Emma_Stone_0003.jpg,non_target,2,0,2,0,0,71,71,35,,,,,,,,,,,,,450.9164424999999,450.9164424999999,451.4170592999999,,,,,,3,001,25,Male,2023-04-28_18h16.13.595,face_recognition_ERP_protocol,2022.2.5,59.93450357464808,
Celebs/55_Jackie_Chan_0008.jpg,non_target,2,0,2,0,0,72,72,115,,,,,,,,,,,,,451.9176306999998,451.9176306999998,452.4182923999997,,,,,,3,001,25,Male,2023-04-28_18h16.13.595,face_recognition_ERP_protocol,2022.2.5,59.93450357464808,
Celebs/36_Jim_Parsons_0011.jpg,non_target,2,0,2,0,0,73,73,69,,,,,,,,,,,,,452.91873559999976,452.91873559999976,453.41931339999974,,,,,,3,001,25,Male,2023-04-28_18h16.13.595,face_recognition_ERP_protocol,2022.2.5,59.93450357464808,
Celebs/23_Daniel_Radcliffe_0002.jpg,target,2,0,2,0,0,74,74,45,,,,,,,,,,,,,453.9199534999998,453.9199534999998,454.42027989999997,,,,,,3,001,25,Male,2023-04-28_18h16.13.595,face_recognition_ERP_protocol,2022.2.5,59.93450357464808,
Celebs/26_Scarlett_Johansson_0003.jpg,non_target,2,0,2,0,0,75,75,54,,,,,,,,,,,,,454.9218026999997,454.9218026999997,455.42158199999994,,,,,,3,001,25,Male,2023-04-28_18h16.13.595,face_recognition_ERP_protocol,2022.2.5,59.93450357464808,
Celebs/16_Emma_Stone_0010.jpg,non_target,2,0,2,0,0,76,76,8,,,,,,,,,,,,,455.9219635999998,455.9219635999998,456.42267790000005,,,,,,3,001,25,Male,2023-04-28_18h16.13.595,face_recognition_ERP_protocol,2022.2.5,59.93450357464808,
Celebs/21_Daniel_Radcliffe_0002.jpg,target,2,0,2,0,0,77,77,30,,,,,,,,,,,,,456.9231329999998,456.9231329999998,457.42372039999964,,,,,,3,001,25,Male,2023-04-28_18h16.13.595,face_recognition_ERP_protocol,2022.2.5,59.93450357464808,
Celebs/54_Jackie_Chan_0001.jpg,non_target,2,0,2,0,0,78,78,112,,,,,,,,,,,,,457.90754739999966,457.90754739999966,458.4081425999998,,,,,,3,001,25,Male,2023-04-28_18h16.13.595,face_recognition_ERP_protocol,2022.2.5,59.93450357464808,
Celebs/19_Emma_Stone_0006.jpg,non_target,2,0,2,0,0,79,79,22,,,,,,,,,,,,,458.90859679999994,458.90859679999994,459.4091986999997,,,,,,3,001,25,Male,2023-04-28_18h16.13.595,face_recognition_ERP_protocol,2022.2.5,59.93450357464808,
Celebs/34_Neil_Patrick_Harris_0007.jpg,non_target,2,0,2,0,0,80,80,67,,,,,,,,,,,,,459.9097483999999,459.9097483999999,460.41053650000003,,,,,,3,001,25,Male,2023-04-28_18h16.13.595,face_recognition_ERP_protocol,2022.2.5,59.93450357464808,
Celebs/23_Emma_Stone_0014.jpg,non_target,2,0,2,0,0,81,81,48,,,,,,,,,,,,,460.91166209999983,460.91166209999983,461.4114255999998,,,,,,3,001,25,Male,2023-04-28_18h16.13.595,face_recognition_ERP_protocol,2022.2.5,59.93450357464808,
Celebs/50_Jackie_Chan_0014.jpg,non_target,2,0,2,0,0,82,82,105,,,,,,,,,,,,,461.9119105999998,461.9119105999998,462.41244359999973,,,,,,3,001,25,Male,2023-04-28_18h16.13.595,face_recognition_ERP_protocol,2022.2.5,59.93450357464808,
Celebs/14_Emma_Watson_0013.jpg,non_target,2,0,2,0,0,83,83,3,,,,,,,,,,,,,462.9133732999999,462.9133732999999,463.41360480000003,,,,,,3,001,25,Male,2023-04-28_18h16.13.595,face_recognition_ERP_protocol,2022.2.5,59.93450357464808,
Celebs/14_Emma_Watson_0005.jpg,non_target,2,0,2,0,0,84,84,1,,,,,,,,,,,,,463.91413599999987,463.91413599999987,464.41474199999993,,,,,,3,001,25,Male,2023-04-28_18h16.13.595,face_recognition_ERP_protocol,2022.2.5,59.93450357464808,
Celebs/20_Emma_Watson_0007.jpg,non_target,2,0,2,0,0,85,85,26,,,,,,,,,,,,,464.9150817999998,464.9150817999998,465.4158935999999,,,,,,3,001,25,Male,2023-04-28_18h16.13.595,face_recognition_ERP_protocol,2022.2.5,59.93450357464808,
Celebs/14_Emma_Watson_0015.jpg,non_target,2,0,2,0,0,86,86,4,,,,,,,,,,,,,465.9162919999999,465.9162919999999,466.4168682999998,,,,,,3,001,25,Male,2023-04-28_18h16.13.595,face_recognition_ERP_protocol,2022.2.5,59.93450357464808,
Celebs/18_Emma_Stone_0016.jpg,non_target,2,0,2,0,0,87,87,20,,,,,,,,,,,,,466.91737609999973,466.91737609999973,467.41790569999966,,,,,,3,001,25,Male,2023-04-28_18h16.13.595,face_recognition_ERP_protocol,2022.2.5,59.93450357464808,
Celebs/40_Jim_Parsons_0015.jpg,non_target,2,0,2,0,0,88,88,85,,,,,,,,,,,,,467.9183810999998,467.9183810999998,468.41897979999976,,,,,,3,001,25,Male,2023-04-28_18h16.13.595,face_recognition_ERP_protocol,2022.2.5,59.93450357464808,
Celebs/33_Neil_Patrick_Harris_0011.jpg,non_target,2,0,2,0,0,89,89,65,,,,,,,,,,,,,468.9195427999998,468.9195427999998,469.42019519999985,,,,,,3,001,25,Male,2023-04-28_18h16.13.595,face_recognition_ERP_protocol,2022.2.5,59.93450357464808,
Celebs/21_Scarlett_Johansson_0007.jpg,non_target,2,0,2,0,0,90,90,38,,,,,,,,,,,,,469.9206371,469.9206371,470.42128809999986,,,,,,3,001,25,Male,2023-04-28_18h16.13.595,face_recognition_ERP_protocol,2022.2.5,59.93450357464808,
Celebs/43_Will_Smith_0006.jpg,non_target,2,0,2,0,0,91,91,88,,,,,,,,,,,,,470.9217776999999,470.9217776999999,471.42240820000006,,,,,,3,001,25,Male,2023-04-28_18h16.13.595,face_recognition_ERP_protocol,2022.2.5,59.93450357464808,
Celebs/18_Daniel_Radcliffe_0008.jpg,target,2,0,2,0,0,92,92,19,,,,,,,,,,,,,471.92299209999965,471.92299209999965,472.4235725999997,,,,,,3,001,25,Male,2023-04-28_18h16.13.595,face_recognition_ERP_protocol,2022.2.5,59.93450357464808,
Celebs/35_Neil_Patrick_Harris_0009.jpg,non_target,2,0,2,0,0,93,93,68,,,,,,,,,,,,,472.9240267,472.9240267,473.4078258999998,,,,,,3,001,25,Male,2023-04-28_18h16.13.595,face_recognition_ERP_protocol,2022.2.5,59.93450357464808,
Celebs/39_Jim_Parsons_0008.jpg,non_target,2,0,2,0,0,94,94,80,,,,,,,,,,,,,473.90824159999966,473.90824159999966,474.4089644999999,,,,,,3,001,25,Male,2023-04-28_18h16.13.595,face_recognition_ERP_protocol,2022.2.5,59.93450357464808,
Celebs/57_Jackie_Chan_0010.jpg,non_target,2,0,2,0,0,95,95,118,,,,,,,,,,,,,474.90959369999973,474.90959369999973,475.40995889999976,,,,,,3,001,25,Male,2023-04-28_18h16.13.595,face_recognition_ERP_protocol,2022.2.5,59.93450357464808,
Celebs/21_Emma_Watson_0004.jpg,non_target,2,0,2,0,0,96,96,36,,,,,,,,,,,,,475.91259119999995,475.91259119999995,476.4110480999998,,,,,,3,001,25,Male,2023-04-28_18h16.13.595,face_recognition_ERP_protocol,2022.2.5,59.93450357464808,
Celebs/19_Margot_Robbie_0004.jpg,non_target,2,0,2,0,0,97,97,24,,,,,,,,,,,,,476.91283010000006,476.91283010000006,477.41226159999997,,,,,,3,001,25,Male,2023-04-28_18h16.13.595,face_recognition_ERP_protocol,2022.2.5,59.93450357464808,
Celebs/37_Neil_Patrick_Harris_0010.jpg,non_target,2,0,2,0,0,98,98,72,,,,,,,,,,,,,477.9126145,477.9126145,478.4132547999998,,,,,,3,001,25,Male,2023-04-28_18h16.13.595,face_recognition_ERP_protocol,2022.2.5,59.93450357464808,
Celebs/45_Johnny_Depp_0003.jpg,non_target,2,0,2,0,0,99,99,94,,,,,,,,,,,,,478.9136787999996,478.9136787999996,479.4144932999998,,,,,,3,001,25,Male,2023-04-28_18h16.13.595,face_recognition_ERP_protocol,2022.2.5,59.93450357464808,
Celebs/47_Johnny_Depp_0003.jpg,non_target,2,0,2,0,0,100,100,97,,,,,,,,,,,,,479.91477110000005,479.91477110000005,480.4155833,,,,,,3,001,25,Male,2023-04-28_18h16.13.595,face_recognition_ERP_protocol,2022.2.5,59.93450357464808,
Celebs/32_Jim_Parsons_0018.jpg,non_target,2,0,2,0,0,101,101,63,,,,,,,,,,,,,480.91589079999994,480.91589079999994,481.41661859999977,,,,,,3,001,25,Male,2023-04-28_18h16.13.595,face_recognition_ERP_protocol,2022.2.5,59.93450357464808,
Celebs/57_Jackie_Chan_0008.jpg,non_target,2,0,2,0,0,102,102,117,,,,,,,,,,,,,481.91757059999964,481.91757059999964,482.41770789999964,,,,,,3,001,25,Male,2023-04-28_18h16.13.595,face_recognition_ERP_protocol,2022.2.5,59.93450357464808,
Celebs/21_Daniel_Radcliffe_0009.jpg,target,2,0,2,0,0,103,103,32,,,,,,,,,,,,,482.9185173999999,482.9185173999999,483.41905789999964,,,,,,3,001,25,Male,2023-04-28_18h16.13.595,face_recognition_ERP_protocol,2022.2.5,59.93450357464808,
Celebs/45_Will_Smith_0014.jpg,non_target,2,0,2,0,0,104,104,96,,,,,,,,,,,,,483.9198240999999,483.9198240999999,484.41976069999964,,,,,,3,001,25,Male,2023-04-28_18h16.13.595,face_recognition_ERP_protocol,2022.2.5,59.93450357464808,
Celebs/22_Emma_Watson_0010.jpg,non_target,2,0,2,0,0,105,105,42,,,,,,,,,,,,,484.92119509999975,484.92119509999975,485.4210125999998,,,,,,3,001,25,Male,2023-04-28_18h16.13.595,face_recognition_ERP_protocol,2022.2.5,59.93450357464808,
Celebs/17_Daniel_Radcliffe_0007.jpg,target,2,0,2,0,0,106,106,12,,,,,,,,,,,,,485.92149279999967,485.92149279999967,486.4219724999998,,,,,,3,001,25,Male,2023-04-28_18h16.13.595,face_recognition_ERP_protocol,2022.2.5,59.93450357464808,
Celebs/24_Emma_Stone_0015.jpg,non_target,2,0,2,0,0,107,107,50,,,,,,,,,,,,,486.92322799999965,486.92322799999965,487.42322749999994,,,,,,3,001,25,Male,2023-04-28_18h16.13.595,face_recognition_ERP_protocol,2022.2.5,59.93450357464808,
Celebs/48_Johnny_Depp_0003.jpg,non_target,2,0,2,0,0,108,108,101,,,,,,,,,,,,,487.9236171999996,487.9236171999996,488.40757659999963,,,,,,3,001,25,Male,2023-04-28_18h16.13.595,face_recognition_ERP_protocol,2022.2.5,59.93450357464808,
Celebs/36_Neil_Patrick_Harris_0007.jpg,non_target,2,0,2,0,0,109,109,70,,,,,,,,,,,,,488.9081778999998,488.9081778999998,489.40862749999997,,,,,,3,001,25,Male,2023-04-28_18h16.13.595,face_recognition_ERP_protocol,2022.2.5,59.93450357464808,
Celebs/22_Margot_Robbie_0010.jpg,non_target,2,0,2,0,0,110,110,43,,,,,,,,,,,,,489.9094814,489.9094814,490.40979160000006,,,,,,3,001,25,Male,2023-04-28_18h16.13.595,face_recognition_ERP_protocol,2022.2.5,59.93450357464808,
Celebs/20_Margot_Robbie_0006.jpg,non_target,2,0,2,0,0,111,111,28,,,,,,,,,,,,,490.91027929999973,490.91027929999973,491.41080269999975,,,,,,3,001,25,Male,2023-04-28_18h16.13.595,face_recognition_ERP_protocol,2022.2.5,59.93450357464808,
Celebs/25_Scarlett_Johansson_0010.jpg,non_target,2,0,2,0,0,112,112,53,,,,,,,,,,,,,491.91222789999983,491.91222789999983,492.41200609999987,,,,,,3,001,25,Male,2023-04-28_18h16.13.595,face_recognition_ERP_protocol,2022.2.5,59.93450357464808,
Celebs/16_Emma_Stone_0012.jpg,non_target,2,0,2,0,0,113,113,9,,,,,,,,,,,,,492.9122935999999,492.9122935999999,493.41291809999984,,,,,,3,001,25,Male,2023-04-28_18h16.13.595,face_recognition_ERP_protocol,2022.2.5,59.93450357464808,
Celebs/22_Emma_Watson_0003.jpg,non_target,2,0,2,0,0,114,114,41,,,,,,,,,,,,,493.9134586,493.9134586,494.4141732999997,,,,,,3,001,25,Male,2023-04-28_18h16.13.595,face_recognition_ERP_protocol,2022.2.5,59.93450357464808,
Celebs/44_Will_Smith_0015.jpg,non_target,2,0,2,0,0,115,115,93,,,,,,,,,,,,,494.91476349999994,494.91476349999994,495.41529489999994,,,,,,3,001,25,Male,2023-04-28_18h16.13.595,face_recognition_ERP_protocol,2022.2.5,59.93450357464808,
Celebs/40_Will_Smith_0012.jpg,non_target,2,0,2,0,0,116,116,86,,,,,,,,,,,,,495.9158625,495.9158625,496.4163061999998,,,,,,3,001,25,Male,2023-04-28_18h16.13.595,face_recognition_ERP_protocol,2022.2.5,59.93450357464808,
Celebs/40_Jim_Parsons_0004.jpg,non_target,2,0,2,0,0,117,117,84,,,,,,,,,,,,,496.91672919999974,496.91672919999974,497.4173735999998,,,,,,3,001,25,Male,2023-04-28_18h16.13.595,face_recognition_ERP_protocol,2022.2.5,59.93450357464808,
Celebs/48_Johnny_Depp_0001.jpg,non_target,2,0,2,0,0,118,118,100,,,,,,,,,,,,,497.9191300999996,497.9191300999996,498.4184406999998,,,,,,3,001,25,Male,2023-04-28_18h16.13.595,face_recognition_ERP_protocol,2022.2.5,59.93450357464808,
Celebs/32_Jim_Parsons_0016.jpg,non_target,2,0,2,0,0,119,119,62,,,,,,,,,,,,,498.92068930000005,498.92068930000005,499.4194798999997,,,,,,3,001,25,Male,2023-04-28_18h16.13.595,face_recognition_ERP_protocol,2022.2.5,59.93450357464808,
Celebs/55_Jackie_Chan_0008.jpg,non_target,3,0,3,0,0,0,0,115,,,,,,,,,,,,,521.0136057,521.0136057,521.4769443,499.9201761999998,499.9201761999998,space,21.020077600000604,,3,001,25,Male,2023-04-28_18h16.13.595,face_recognition_ERP_protocol,2022.2.5,59.93450357464808,
Celebs/17_Margot_Robbie_0006.jpg,non_target,3,0,3,0,0,1,1,14,,,,,,,,,,,,,521.9775053999997,521.9775053999997,522.4782031999998,,,,,,3,001,25,Male,2023-04-28_18h16.13.595,face_recognition_ERP_protocol,2022.2.5,59.93450357464808,
Celebs/35_Neil_Patrick_Harris_0009.jpg,non_target,3,0,3,0,0,2,2,68,,,,,,,,,,,,,522.9803056000001,522.9803056000001,523.4625897999999,,,,,,3,001,25,Male,2023-04-28_18h16.13.595,face_recognition_ERP_protocol,2022.2.5,59.93450357464808,
Celebs/37_Neil_Patrick_Harris_0010.jpg,non_target,3,0,3,0,0,3,3,72,,,,,,,,,,,,,523.9630665999998,523.9630665999998,524.4635178999997,,,,,,3,001,25,Male,2023-04-28_18h16.13.595,face_recognition_ERP_protocol,2022.2.5,59.93450357464808,
Celebs/52_Jackie_Chan_0002.jpg,non_target,3,0,3,0,0,4,4,111,,,,,,,,,,,,,524.9649129999998,524.9649129999998,525.4646221999997,,,,,,3,001,25,Male,2023-04-28_18h16.13.595,face_recognition_ERP_protocol,2022.2.5,59.93450357464808,
Celebs/21_Margot_Robbie_0003.jpg,non_target,3,0,3,0,0,5,5,37,,,,,,,,,,,,,525.9676528,525.9676528,526.4658034999998,,,,,,3,001,25,Male,2023-04-28_18h16.13.595,face_recognition_ERP_protocol,2022.2.5,59.93450357464808,
Celebs/36_Neil_Patrick_Harris_0010.jpg,non_target,3,0,3,0,0,6,6,71,,,,,,,,,,,,,526.9663659999997,526.9663659999997,527.4667870999997,,,,,,3,001,25,Male,2023-04-28_18h16.13.595,face_recognition_ERP_protocol,2022.2.5,59.93450357464808,
Celebs/29_Scarlett_Johansson_0016.jpg,non_target,3,0,3,0,0,7,7,59,,,,,,,,,,,,,527.967306,527.967306,528.4679891000001,,,,,,3,001,25,Male,2023-04-28_18h16.13.595,face_recognition_ERP_protocol,2022.2.5,59.93450357464808,
Celebs/39_Neil_Patrick_Harris_0001.jpg,non_target,3,0,3,0,0,8,8,82,,,,,,,,,,,,,528.9684183999998,528.9684183999998,529.4691175999997,,,,,,3,001,25,Male,2023-04-28_18h16.13.595,face_recognition_ERP_protocol,2022.2.5,59.93450357464808,
Celebs/31_Neil_Patrick_Harris_0008.jpg,non_target,3,0,3,0,0,9,9,60,,,,,,,,,,,,,529.9695941999998,529.9695941999998,530.4701783999999,,,,,,3,001,25,Male,2023-04-28_18h16.13.595,face_recognition_ERP_protocol,2022.2.5,59.93450357464808,
Celebs/20_Scarlett_Johansson_0011.jpg,non_target,3,0,3,0,0,10,10,29,,,,,,,,,,,,,530.9706066999997,530.9706066999997,531.4712313,,,,,,3,001,25,Male,2023-04-28_18h16.13.595,face_recognition_ERP_protocol,2022.2.5,59.93450357464808,
Celebs/19_Emma_Stone_0006.jpg,non_target,3,0,3,0,0,11,11,22,,,,,,,,,,,,,531.9717271999998,531.9717271999998,532.4723829999998,,,,,,3,001,25,Male,2023-04-28_18h16.13.595,face_recognition_ERP_protocol,2022.2.5,59.93450357464808,
Celebs/28_Scarlett_Johansson_0005.jpg,non_target,3,0,3,0,0,12,12,57,,,,,,,,,,,,,532.9727791999999,532.9727791999999,533.4734737999997,,,,,,3,001,25,Male,2023-04-28_18h16.13.595,face_recognition_ERP_protocol,2022.2.5,59.93450357464808,
Celebs/50_Johnny_Depp_0004.jpg,non_target,3,0,3,0,0,13,13,106,,,,,,,,,,,,,533.9742438999997,533.9742438999997,534.4744532,,,,,,3,001,25,Male,2023-04-28_18h16.13.595,face_recognition_ERP_protocol,2022.2.5,59.93450357464808,
Celebs/40_Will_Smith_0012.jpg,non_target,3,0,3,0,0,14,14,86,,,,,,,,,,,,,534.9750538999997,534.9750538999997,535.4757027999999,,,,,,3,001,25,Male,2023-04-28_18h16.13.595,face_recognition_ERP_protocol,2022.2.5,59.93450357464808,
Celebs/39_Jim_Parsons_0010.jpg,non_target,3,0,3,0,0,15,15,81,,,,,,,,,,,,,535.9760920999997,535.9760920999997,536.4767343999997,,,,,,3,001,25,Male,2023-04-28_18h16.13.595,face_recognition_ERP_protocol,2022.2.5,59.93450357464808,
Celebs/20_Margot_Robbie_0004.jpg,non_target,3,0,3,0,0,16,16,27,,,,,,,,,,,,,536.9781693999998,536.9781693999998,537.4778504999999,,,,,,3,001,25,Male,2023-04-28_18h16.13.595,face_recognition_ERP_protocol,2022.2.5,59.93450357464808,
Celebs/24_Daniel_Radcliffe_0017.jpg,target,3,0,3,0,0,17,17,49,,,,,,,,,,,,,537.9782179999997,537.9782179999997,538.4788807,,,,,,3,001,25,Male,2023-04-28_18h16.13.595,face_recognition_ERP_protocol,2022.2.5,59.93450357464808,
Celebs/36_Neil_Patrick_Harris_0007.jpg,non_target,3,0,3,0,0,18,18,70,,,,,,,,,,,,,538.9627145999998,538.9627145999998,539.4633279,,,,,,3,001,25,Male,2023-04-28_18h16.13.595,face_recognition_ERP_protocol,2022.2.5,59.93450357464808,
Celebs/17_Margot_Robbie_0012.jpg,non_target,3,0,3,0,0,19,19,15,,,,,,,,,,,,,539.9638147000001,539.9638147000001,540.4644951,,,,,,3,001,25,Male,2023-04-28_18h16.13.595,face_recognition_ERP_protocol,2022.2.5,59.93450357464808,
Celebs/55_Jackie_Chan_0003.jpg,non_target,3,0,3,0,0,20,20,114,,,,,,,,,,,,,540.9659769999998,540.9659769999998,541.4655963999999,,,,,,3,001,25,Male,2023-04-28_18h16.13.595,face_recognition_ERP_protocol,2022.2.5,59.93450357464808,
Celebs/21_Daniel_Radcliffe_0012.jpg,target,3,0,3,0,0,21,21,33,,,,,,,,,,,,,541.9663940999999,541.9663940999999,542.4666875999997,,,,,,3,001,25,Male,2023-04-28_18h16.13.595,face_recognition_ERP_protocol,2022.2.5,59.93450357464808,
Celebs/17_Margot_Robbie_0014.jpg,non_target,3,0,3,0,0,22,22,16,,,,,,,,,,,,,542.9671541999996,542.9671541999996,543.4676141999998,,,,,,3,001,25,Male,2023-04-28_18h16.13.595,face_recognition_ERP_protocol,2022.2.5,59.93450357464808,
Celebs/50_Jackie_Chan_0012.jpg,non_target,3,0,3,0,0,23,23,104,,,,,,,,,,,,,543.9689002999999,543.9689002999999,544.4687258999998,,,,,,3,001,25,Male,2023-04-28_18h16.13.595,face_recognition_ERP_protocol,2022.2.5,59.93450357464808,
Celebs/20_Emma_Stone_0005.jpg,non_target,3,0,3,0,0,24,24,25,,,,,,,,,,,,,544.9692716,544.9692716,545.4698261999997,,,,,,3,001,25,Male,2023-04-28_18h16.13.595,face_recognition_ERP_protocol,2022.2.5,59.93450357464808,
Celebs/26_Scarlett_Johansson_0008.jpg,non_target,3,0,3,0,0,25,25,55,,,,,,,,,,,,,545.9719934999998,545.9719934999998,546.4710577999999,,,,,,3,001,25,Male,2023-04-28_18h16.13.595,face_recognition_ERP_protocol,2022.2.5,59.93450357464808,
Celebs/57_Jackie_Chan_0008.jpg,non_target,3,0,3,0,0,26,26,117,,,,,,,,,,,,,546.9729948999998,546.9729948999998,547.4720548,,,,,,3,001,25,Male,2023-04-28_18h16.13.595,face_recognition_ERP_protocol,2022.2.5,59.93450357464808,
Celebs/43_Will_Smith_0006.jpg,non_target,3,0,3,0,0,27,27,88,,,,,,,,,,,,,547.9727717000001,547.9727717000001,548.4733538,,,,,,3,001,25,Male,2023-04-28_18h16.13.595,face_recognition_ERP_protocol,2022.2.5,59.93450357464808,
Celebs/14_Emma_Watson_0005.jpg,non_target,3,0,3,0,0,28,28,1,,,,,,,,,,,,,548.9735719,548.9735719,549.4743976999998,,,,,,3,001,25,Male,2023-04-28_18h16.13.595,face_recognition_ERP_protocol,2022.2.5,59.93450357464808,
Celebs/20_Margot_Robbie_0006.jpg,non_target,3,0,3,0,0,29,29,28,,,,,,,,,,,,,549.9747632999997,549.9747632999997,550.4753938999997,,,,,,3,001,25,Male,2023-04-28_18h16.13.595,face_recognition_ERP_protocol,2022.2.5,59.93450357464808,
Celebs/16_Emma_Stone_0010.jpg,non_target,3,0,3,0,0,30,30,8,,,,,,,,,,,,,550.9758434999999,550.9758434999999,551.4764357999998,,,,,,3,001,25,Male,2023-04-28_18h16.13.595,face_recognition_ERP_protocol,2022.2.5,59.93450357464808,
Celebs/22_Emma_Watson_0010.jpg,non_target,3,0,3,0,0,31,31,42,,,,,,,,,,,,,551.9768979,551.9768979,552.4776979999997,,,,,,3,001,25,Male,2023-04-28_18h16.13.595,face_recognition_ERP_protocol,2022.2.5,59.93450357464808,
Celebs/34_Neil_Patrick_Harris_0007.jpg,non_target,3,0,3,0,0,32,32,67,,,,,,,,,,,,,552.9791796999998,552.9791796999998,553.4785506999997,,,,,,3,001,25,Male,2023-04-28_18h16.13.595,face_recognition_ERP_protocol,2022.2.5,59.93450357464808,
Celebs/38_Neil_Patrick_Harris_0006.jpg,non_target,3,0,3,0,0,33,33,76,,,,,,,,,,,,,553.9637706999997,553.9637706999997,554.4631163999998,,,,,,3,001,25,Male,2023-04-28_18h16.13.595,face_recognition_ERP_protocol,2022.2.5,59.93450357464808,
Celebs/50_Johnny_Depp_0018.jpg,non_target,3,0,3,0,0,34,34,109,,,,,,,,,,,,,554.9634845999999,554.9634845999999,555.464172,,,,,,3,001,25,Male,2023-04-28_18h16.13.595,face_recognition_ERP_protocol,2022.2.5,59.93450357464808,
Celebs/34_Neil_Patrick_Harris_0004.jpg,non_target,3,0,3,0,0,35,35,66,,,,,,,,,,,,,555.9646309,555.9646309,556.4652289999999,,,,,,3,001,25,Male,2023-04-28_18h16.13.595,face_recognition_ERP_protocol,2022.2.5,59.93450357464808,
Celebs/26_Scarlett_Johansson_0003.jpg,non_target,3,0,3,0,0,36,36,54,,,,,,,,,,,,,556.9666678999997,556.9666678999997,557.4662436999997,,,,,,3,001,25,Male,2023-04-28_18h16.13.595,face_recognition_ERP_protocol,2022.2.5,59.93450357464808,
Celebs/49_Johnny_Depp_0013.jpg,non_target,3,0,3,0,0,37,37,103,,,,,,,,,,,,,557.9668234999999,557.9668234999999,558.4675410999998,,,,,,3,001,25,Male,2023-04-28_18h16.13.595,face_recognition_ERP_protocol,2022.2.5,59.93450357464808,
Celebs/44_Will_Smith_0015.jpg,non_target,3,0,3,0,0,38,38,93,,,,,,,,,,,,,558.9692588999997,558.9692588999997,559.4683989,,,,,,3,001,25,Male,2023-04-28_18h16.13.595,face_recognition_ERP_protocol,2022.2.5,59.93450357464808,
Celebs/16_Emma_Stone_0012.jpg,non_target,3,0,3,0,0,39,39,9,,,,,,,,,,,,,559.9689595999998,559.9689595999998,560.4697099,,,,,,3,001,25,Male,2023-04-28_18h16.13.595,face_recognition_ERP_protocol,2022.2.5,59.93450357464808,
Celebs/22_Emma_Watson_0003.jpg,non_target,3,0,3,0,0,40,40,41,,,,,,,,,,,,,560.9699519999999,560.9699519999999,561.4707487000001,,,,,,3,001,25,Male,2023-04-28_18h16.13.595,face_recognition_ERP_protocol,2022.2.5,59.93450357464808,
Celebs/33_Neil_Patrick_Harris_0011.jpg,non_target,3,0,3,0,0,41,41,65,,,,,,,,,,,,,561.9710344999999,561.9710344999999,562.4718811999996,,,,,,3,001,25,Male,2023-04-28_18h16.13.595,face_recognition_ERP_protocol,2022.2.5,59.93450357464808,
Celebs/23_Daniel_Radcliffe_0019.jpg,target,3,0,3,0,0,42,42,47,,,,,,,,,,,,,562.9722148999999,562.9722148999999,563.4729192999998,,,,,,3,001,25,Male,2023-04-28_18h16.13.595,face_recognition_ERP_protocol,2022.2.5,59.93450357464808,
Celebs/29_Scarlett_Johansson_0010.jpg,non_target,3,0,3,0,0,43,43,58,,,,,,,,,,,,,563.9731655,563.9731655,564.4739182999997,,,,,,3,001,25,Male,2023-04-28_18h16.13.595,face_recognition_ERP_protocol,2022.2.5,59.93450357464808,
Celebs/45_Will_Smith_0010.jpg,non_target,3,0,3,0,0,44,44,95,,,,,,,,,,,,,564.976654,564.976654,565.4750583999999,,,,,,3,001,25,Male,2023-04-28_18h16.13.595,face_recognition_ERP_protocol,2022.2.5,59.93450357464808,
Celebs/21_Daniel_Radcliffe_0008.jpg,target,3,0,3,0,0,45,45,31,,,,,,,,,,,,,565.9762287999997,565.9762287999997,566.4761580999998,,,,,,3,001,25,Male,2023-04-28_18h16.13.595,face_recognition_ERP_protocol,2022.2.5,59.93450357464808,
Celebs/14_Emma_Watson_0013.jpg,non_target,3,0,3,0,0,46,46,3,,,,,,,,,,,,,566.9767265,566.9767265,567.4772424999996,,,,,,3,001,25,Male,2023-04-28_18h16.13.595,face_recognition_ERP_protocol,2022.2.5,59.93450357464808,
Celebs/20_Emma_Watson_0007.jpg,non_target,3,0,3,0,0,47,47,26,,,,,,,,,,,,,567.9778056,567.9778056,568.4783846999999,,,,,,3,001,25,Male,2023-04-28_18h16.13.595,face_recognition_ERP_protocol,2022.2.5,59.93450357464808,
Celebs/39_Jim_Parsons_0001.jpg,non_target,3,0,3,0,0,48,48,78,,,,,,,,,,,,,568.9788275999999,568.9788275999999,569.4627138999999,,,,,,3,001,25,Male,2023-04-28_18h16.13.595,face_recognition_ERP_protocol,2022.2.5,59.93450357464808,
Celebs/15_Margot_Robbie_0005.jpg,non_target,3,0,3,0,0,49,49,5,,,,,,,,,,,,,569.9634615,569.9634615,570.4638624999998,,,,,,3,001,25,Male,2023-04-28_18h16.13.595,face_recognition_ERP_protocol,2022.2.5,59.93450357464808,
Celebs/39_Jim_Parsons_0008.jpg,non_target,3,0,3,0,0,50,50,80,,,,,,,,,,,,,570.9650567999997,570.9650567999997,571.4649934999998,,,,,,3,001,25,Male,2023-04-28_18h16.13.595,face_recognition_ERP_protocol,2022.2.5,59.93450357464808,
Celebs/48_Johnny_Depp_0003.jpg,non_target,3,0,3,0,0,51,51,101,,,,,,,,,,,,,571.9654255999999,571.9654255999999,572.4659546999997,,,,,,3,001,25,Male,2023-04-28_18h16.13.595,face_recognition_ERP_protocol,2022.2.5,59.93450357464808,
Celebs/22_Margot_Robbie_0010.jpg,non_target,3,0,3,0,0,52,52,43,,,,,,,,,,,,,572.9664475999998,572.9664475999998,573.4672134999996,,,,,,3,001,25,Male,2023-04-28_18h16.13.595,face_recognition_ERP_protocol,2022.2.5,59.93450357464808,
Celebs/50_Johnny_Depp_0010.jpg,non_target,3,0,3,0,0,53,53,108,,,,,,,,,,,,,573.9680098999997,573.9680098999997,574.4682212999996,,,,,,3,001,25,Male,2023-04-28_18h16.13.595,face_recognition_ERP_protocol,2022.2.5,59.93450357464808,
Celebs/21_Emma_Stone_0002.jpg,non_target,3,0,3,0,0,54,54,34,,,,,,,,,,,,,574.9693554,574.9693554,575.4692683999997,,,,,,3,001,25,Male,2023-04-28_18h16.13.595,face_recognition_ERP_protocol,2022.2.5,59.93450357464808,
Celebs/38_Jim_Parsons_0003.jpg,non_target,3,0,3,0,0,55,55,75,,,,,,,,,,,,,575.9697268999998,575.9697268999998,576.4704278999998,,,,,,3,001,25,Male,2023-04-28_18h16.13.595,face_recognition_ERP_protocol,2022.2.5,59.93450357464808,
Celebs/18_Emma_Watson_0004.jpg,non_target,3,0,3,0,0,56,56,21,,,,,,,,,,,,,576.9718417999998,576.9718417999998,577.4715941999998,,,,,,3,001,25,Male,2023-04-28_18h16.13.595,face_recognition_ERP_protocol,2022.2.5,59.93450357464808,
Celebs/36_Jim_Parsons_0011.jpg,non_target,3,0,3,0,0,57,57,69,,,,,,,,,,,,,577.9718232999999,577.9718232999999,578.4725531999998,,,,,,3,001,25,Male,2023-04-28_18h16.13.595,face_recognition_ERP_protocol,2022.2.5,59.93450357464808,
Celebs/16_Emma_Stone_0014.jpg,non_target,3,0,3,0,0,58,58,10,,,,,,,,,,,,,578.9741878,578.9741878,579.4737585999997,,,,,,3,001,25,Male,2023-04-28_18h16.13.595,face_recognition_ERP_protocol,2022.2.5,59.93450357464808,
Celebs/17_Daniel_Radcliffe_0007.jpg,target,3,0,3,0,0,59,59,12,,,,,,,,,,,,,579.9744851999999,579.9744851999999,580.4748844000001,,,,,,3,001,25,Male,2023-04-28_18h16.13.595,face_recognition_ERP_protocol,2022.2.5,59.93450357464808,
Celebs/24_Emma_Stone_0015.jpg,non_target,3,0,3,0,0,60,60,50,,,,,,,,,,,,,580.9751638999996,580.9751638999996,581.4759165999999,,,,,,3,001,25,Male,2023-04-28_18h16.13.595,face_recognition_ERP_protocol,2022.2.5,59.93450357464808,
Celebs/51_Jackie_Chan_0006.jpg,non_target,3,0,3,0,0,61,61,110,,,,,,,,,,,,,581.9764569999998,581.9764569999998,582.4770239,,,,,,3,001,25,Male,2023-04-28_18h16.13.595,face_recognition_ERP_protocol,2022.2.5,59.93450357464808,
Celebs/50_Jackie_Chan_0014.jpg,non_target,3,0,3,0,0,62,62,105,,,,,,,,,,,,,582.9776225,582.9776225,583.4781015999997,,,,,,3,001,25,Male,2023-04-28_18h16.13.595,face_recognition_ERP_protocol,2022.2.5,59.93450357464808,
Celebs/33_Jim_Parsons_0011.jpg,non_target,3,0,3,0,0,63,63,64,,,,,,,,,,,,,583.9795749999998,583.9795749999998,584.4624156999998,,,,,,3,001,25,Male,2023-04-28_18h16.13.595,face_recognition_ERP_protocol,2022.2.5,59.93450357464808,
Celebs/44_Will_Smith_0006.jpg,non_target,3,0,3,0,0,64,64,91,,,,,,,,,,,,,584.9628782,584.9628782,585.4636209,,,,,,3,001,25,Male,2023-04-28_18h16.13.595,face_recognition_ERP_protocol,2022.2.5,59.93450357464808,
Celebs/40_Jim_Parsons_0015.jpg,non_target,3,0,3,0,0,65,65,85,,,,,,,,,,,,,585.9647891999998,585.9647891999998,586.4646755999997,,,,,,3,001,25,Male,2023-04-28_18h16.13.595,face_recognition_ERP_protocol,2022.2.5,59.93450357464808,
Celebs/48_Johnny_Depp_0001.jpg,non_target,3,0,3,0,0,66,66,100,,,,,,,,,,,,,586.9651779999999,586.9651779999999,587.4658256999996,,,,,,3,001,25,Male,2023-04-28_18h16.13.595,face_recognition_ERP_protocol,2022.2.5,59.93450357464808,
Celebs/21_Scarlett_Johansson_0007.jpg,non_target,3,0,3,0,0,67,67,38,,,,,,,,,,,,,587.966199,587.966199,588.4669830999997,,,,,,3,001,25,Male,2023-04-28_18h16.13.595,face_recognition_ERP_protocol,2022.2.5,59.93450357464808,
Celebs/48_Johnny_Depp_0005.jpg,non_target,3,0,3,0,0,68,68,102,,,,,,,,,,,,,588.9672624,588.9672624,589.4681468999997,,,,,,3,001,25,Male,2023-04-28_18h16.13.595,face_recognition_ERP_protocol,2022.2.5,59.93450357464808,
Celebs/45_Johnny_Depp_0003.jpg,non_target,3,0,3,0,0,69,69,94,,,,,,,,,,,,,589.968429,589.968429,590.4689644999999,,,,,,3,001,25,Male,2023-04-28_18h16.13.595,face_recognition_ERP_protocol,2022.2.5,59.93450357464808,
Celebs/32_Jim_Parsons_0016.jpg,non_target,3,0,3,0,0,70,70,62,,,,,,,,,,,,,590.9696543,590.9696543,591.4701295,,,,,,3,001,25,Male,2023-04-28_18h16.13.595,face_recognition_ERP_protocol,2022.2.5,59.93450357464808,
